Folder: polymers/polypropylene/hiejima_2017/100C

Note: polypropylene/hiejima_2017/100C/summary.md
## Raman

#### Curve 1 (Disordered Peak)
**Type**: Skewed Gaussian\
**amplitude:** 0.5\
**center** 970.4\
**σ** 5.5
**σ2** 4.4


#### Curve 2 (Ordered Peak)
**Type**:Skewed Gaussian\
**amplitude** 0.3\
**center** 995.9\
**σ** 4.7\
**σ2** 4.9


## S<sup>2</sup>
**Disordered Curve Integrated Area:** 6.724615\
**Ordered Curve Integrated Area:** 3.910819\
**S<sup>2</sup>:** 0.3677









Data extracted from Figure 5a of [1]


[1]Y. Hiejima, K. Takeda, and K. Nitta, Macromolecules 50, 5867 (2017).



https://doi.org/10.1021/acs.macromol.7b00229

Note: README.md
Data Extraction Repository for
R.A Makin, K.R. York,  A.S. Messecar, and S.M. Durbin, “Quantitative Disorder Analysis and Particle Removal Efficiency of Polypropylene-Based Masks”


### References

## Polypropylene
[1]Y. Hiejima, K. Takeda, and K. Nitta, Macromolecules 50, 5867 (2017). 
https://doi.org/10.1021/acs.macromol.7b00229



[2] H. Li, W. Wu, M. M. Bubakir, H. Chen, X. Zhong, Z. Liu, Y. Ding, and W. Yang, J. Appl. Polym. Sci. 131, 40080 (2014).  
https://doi.org/10.1002/app.40080


[3] S. Lee, A. R. Cho, D. Park, J. K. Kim, K. S. Han, I.-J. Yoon, M. H. Lee, and J. Nah, ACS Applied Materials & Interfaces (2019).
https://doi.org/10.1021/acsami.8b19741


## PBI

[1] S. Lee, A. R. Cho, D. Park, J. K. Kim, K. S. Han, I.-J. Yoon, M. H. Lee, and J. Nah, ACS Applied Materials & Interfaces (2019).
https://doi.org/10.1021/acsami.8b19741


## Polyester


[1] I. E. Agranovski, R. Huang, O. V. Pyankov, I. S. Altman, and S. A. Grinshpun, Aerosol Science and Technology 40, 963 (2006).
https://doi.org/10.1080/02786820600833203


## PP/PB-BCS

[1] J. Liu, X. Zhang, H. Zhang, L. Zheng, C. Huang, H. Wu, R. Wang, and X. Jin, RSC Adv. 7, 43879 (2017).

https://doi.org/10.1039/C7RA07694K

File: raman_peaks.csv
957.988, 1.08694
958.136, 1.07672
960.504, 1.13422
961.096, 1.15454
962.576, 1.21554
964.204, 1.29352
965.24, 1.36137
965.98, 1.40546
966.572, 1.43937
967.164, 1.47329
967.312, 1.48007
967.904, 1.52418
967.904, 1.50719
968.2, 1.53094
968.57, 1.5258
968.94, 1.53425
969.532, 1.56137
969.68, 1.55116
969.754, 1.56644
970.272, 1.56129
971.086, 1.5561
971.382, 1.54926
972.492, 1.52025
972.936, 1.46922
973.972, 1.40454
975.304, 1.30923
975.748, 1.27519
977.08, 1.19008
977.524, 1.16624
977.82, 1.14922
978.264, 1.12878
978.708, 1.12872
979.892, 1.07082
980.188, 1.07758
980.188, 1.06399
980.41, 1.05886
980.484, 1.07075
980.928, 1.0605
981.002, 1.0452
981.816, 1.04341
982.26, 1.02976
982.704, 1.03651
983.74, 1.02619
985.368, 1.0362
985.664, 1.03957
986.256, 1.05309
986.478, 1.05816
986.626, 1.07514
986.774, 1.06492
988.18, 1.11404
988.772, 1.11737
989.068, 1.14452
989.068, 1.12753
989.364, 1.15468
989.66, 1.16484
990.548, 1.19533
990.696, 1.2021
991.88, 1.23595
992.324, 1.25629
993.212, 1.29697
997.948, 1.31681
998.392, 1.32016
999.724, 1.25544
999.872, 1.24522
1000.46, 1.23496
1000.61, 1.22815
1000.61, 1.20776
1001.35, 1.19748
1002.24, 1.1498
1002.54, 1.15656
1003.57, 1.12246
1003.57, 1.10547