Folder: polymers/polypropylene/hiejima_2017/105C

Note: polypropylene/hiejima_2017/105C/summary.md
## Raman

#### Curve 1 (Disordered Peak)
**Type**: Skewed Gaussian\
**amplitude:** 0.5\
**center** 970.5\
**σ** 5.8
**σ2** 4.5


#### Curve 2 (Ordered Peak)
**Type**:Skewed Gaussian\
**amplitude** 0.3\
**center** 996.1\
**σ** 4.9\
**σ2** 4.8


## S<sup>2</sup>
**Disordered Curve Integrated Area:** 6.627763\
**Ordered Curve Integrated Area:** 3.723866\
**S<sup>2</sup>:** 0.3597






Data extracted from Figure 5a of [1]


[1]Y. Hiejima, K. Takeda, and K. Nitta, Macromolecules 50, 5867 (2017).



https://doi.org/10.1021/acs.macromol.7b00229

Note: README.md
Data Extraction Repository for
R.A Makin, K.R. York,  A.S. Messecar, and S.M. Durbin, “Quantitative Disorder Analysis and Particle Removal Efficiency of Polypropylene-Based Masks”


### References

## Polypropylene
[1]Y. Hiejima, K. Takeda, and K. Nitta, Macromolecules 50, 5867 (2017). 
https://doi.org/10.1021/acs.macromol.7b00229



[2] H. Li, W. Wu, M. M. Bubakir, H. Chen, X. Zhong, Z. Liu, Y. Ding, and W. Yang, J. Appl. Polym. Sci. 131, 40080 (2014).  
https://doi.org/10.1002/app.40080


[3] S. Lee, A. R. Cho, D. Park, J. K. Kim, K. S. Han, I.-J. Yoon, M. H. Lee, and J. Nah, ACS Applied Materials & Interfaces (2019).
https://doi.org/10.1021/acsami.8b19741


## PBI

[1] S. Lee, A. R. Cho, D. Park, J. K. Kim, K. S. Han, I.-J. Yoon, M. H. Lee, and J. Nah, ACS Applied Materials & Interfaces (2019).
https://doi.org/10.1021/acsami.8b19741


## Polyester


[1] I. E. Agranovski, R. Huang, O. V. Pyankov, I. S. Altman, and S. A. Grinshpun, Aerosol Science and Technology 40, 963 (2006).
https://doi.org/10.1080/02786820600833203


## PP/PB-BCS

[1] J. Liu, X. Zhang, H. Zhang, L. Zheng, C. Huang, H. Wu, R. Wang, and X. Jin, RSC Adv. 7, 43879 (2017).

https://doi.org/10.1039/C7RA07694K

File: raman_peaks.csv
956.507, 1.02594
956.804, 1.0259
957.692, 1.04279
957.914, 1.04532
958.136, 1.05124
958.876, 1.05965
959.32, 1.07319
959.764, 1.08333
959.912, 1.09351
960.282, 1.10196
960.948, 1.12398
961.17, 1.12905
961.466, 1.13666
961.762, 1.14342
961.984, 1.15784
962.132, 1.16292
962.28, 1.168
962.428, 1.17478
962.872, 1.19682
963.02, 1.2019
963.168, 1.20868
963.612, 1.22902
963.834, 1.24429
963.908, 1.25277
964.13, 1.26464
964.5, 1.28669
964.722, 1.29516
964.87, 1.30873
964.944, 1.30363
965.092, 1.3206
965.24, 1.33078
965.437, 1.33755
965.758, 1.35621
966.276, 1.38843
966.276, 1.37824
966.572, 1.3952
966.72, 1.40197
967.016, 1.41214
967.164, 1.42571
967.312, 1.43079
967.608, 1.43925
967.756, 1.44603
968.2, 1.45958
968.644, 1.46802
968.94, 1.46969
969.088, 1.47647
969.532, 1.48661
969.828, 1.48657
970.346, 1.49671
970.642, 1.49668
970.938, 1.49494
971.9, 1.47274
971.9, 1.46595
972.122, 1.45742
972.418, 1.44719
972.714, 1.43357
972.862, 1.42505
973.01, 1.41654
973.528, 1.3825
973.824, 1.36717
974.12, 1.35694
974.12, 1.34675
974.268, 1.33993
974.416, 1.33312
974.564, 1.32631
974.712, 1.31609
974.712, 1.3093
975.156, 1.28886
975.304, 1.27355
975.452, 1.26333
975.748, 1.24801
975.822, 1.2395
975.896, 1.231
976.044, 1.22079
976.192, 1.21057
976.488, 1.19865
976.488, 1.19355
976.636, 1.18843
976.784, 1.17822
976.932, 1.17311
976.932, 1.16631
977.08, 1.1561
977.302, 1.15098
977.672, 1.13224
977.82, 1.11523
978.042, 1.11011
978.412, 1.09478
978.708, 1.08115
978.856, 1.07433
979.744, 1.04704
979.966, 1.03852
980.484, 1.02657
981.15, 1.0146
981.52, 1.00946
981.816, 1.00772
982.408, 1.00596
982.852, 1.00081
983.074, 1.00078
983.37, 1.00075
983.666, 1.00071
983.962, 1.00068
984.258, 1.00065
984.85, 1.00398
985.22, 1.00563
985.442, 1.0107
985.812, 1.01576
986.256, 1.02251
986.552, 1.02587
986.774, 1.03604
986.996, 1.04621
987.366, 1.05126
987.884, 1.0631
988.106, 1.06817
989.068, 1.09524
989.586, 1.11388
990.03, 1.12572
990.622, 1.14604
991.14, 1.16467
991.362, 1.17484
991.436, 1.18163
991.658, 1.1901
992.028, 1.20195
992.176, 1.21553
992.62, 1.22567
993.064, 1.23921
993.36, 1.24428
993.656, 1.24934
993.804, 1.25612
993.952, 1.2663
994.322, 1.27135
994.692, 1.27641
994.914, 1.28148
995.432, 1.28312
995.728, 1.28818
996.172, 1.28813
997.356, 1.2761
997.726, 1.27436
998.614, 1.25726
999.576, 1.22487
999.65, 1.21636
1000.02, 1.20783
1000.46, 1.18738
1000.76, 1.18055
1001.06, 1.16353
1001.43, 1.14989
1001.5, 1.14309
1001.8, 1.13286
1002.09, 1.11923
1002.31, 1.1175
1002.54, 1.10898
1002.68, 1.09877
1002.98, 1.08854
1004.61, 1.04757
1005.05, 1.03733
1005.35, 1.0305
1005.79, 1.02025