Folder: polymers/polypropylene/hiejima_2017/110C

Note: README.md
Data Extraction Repository for
R.A Makin, K.R. York,  A.S. Messecar, and S.M. Durbin, “Quantitative Disorder Analysis and Particle Removal Efficiency of Polypropylene-Based Masks”


### References

## Polypropylene
[1]Y. Hiejima, K. Takeda, and K. Nitta, Macromolecules 50, 5867 (2017). 
https://doi.org/10.1021/acs.macromol.7b00229



[2] H. Li, W. Wu, M. M. Bubakir, H. Chen, X. Zhong, Z. Liu, Y. Ding, and W. Yang, J. Appl. Polym. Sci. 131, 40080 (2014).  
https://doi.org/10.1002/app.40080


[3] S. Lee, A. R. Cho, D. Park, J. K. Kim, K. S. Han, I.-J. Yoon, M. H. Lee, and J. Nah, ACS Applied Materials & Interfaces (2019).
https://doi.org/10.1021/acsami.8b19741


## PBI

[1] S. Lee, A. R. Cho, D. Park, J. K. Kim, K. S. Han, I.-J. Yoon, M. H. Lee, and J. Nah, ACS Applied Materials & Interfaces (2019).
https://doi.org/10.1021/acsami.8b19741


## Polyester


[1] I. E. Agranovski, R. Huang, O. V. Pyankov, I. S. Altman, and S. A. Grinshpun, Aerosol Science and Technology 40, 963 (2006).
https://doi.org/10.1080/02786820600833203


## PP/PB-BCS

[1] J. Liu, X. Zhang, H. Zhang, L. Zheng, C. Huang, H. Wu, R. Wang, and X. Jin, RSC Adv. 7, 43879 (2017).

https://doi.org/10.1039/C7RA07694K

File: raman_peaks.csv
956.804, 1.00211
957.692, 1.01221
957.988, 1.01557
958.728, 1.02228
959.024, 1.03244
959.764, 1.04595
963.02, 1.16452
963.612, 1.19164
963.76, 1.21541
964.352, 1.24592
964.5, 1.2527
965.092, 1.26623
965.24, 1.2968
965.98, 1.33749
965.98, 1.3171
966.424, 1.34084
966.572, 1.34762
967.904, 1.41203
968.126, 1.41711
970.272, 1.44914
972.344, 1.40133
972.788, 1.37749
972.936, 1.39106
973.38, 1.36722
973.824, 1.33998
974.268, 1.28896
974.564, 1.27193
974.712, 1.28891
975.008, 1.26508
975.156, 1.25487
975.156, 1.23108
976.34, 1.15958
977.228, 1.10171
977.376, 1.09489
977.524, 1.10847
977.672, 1.07787
977.82, 1.09145
978.116, 1.07442
978.708, 1.05396
979.892, 1.01304
980.484, 0.999383
985.072, 0.971667
985.368, 0.975031
985.664, 0.978395
985.96, 0.981759
986.404, 0.9987
986.7, 1.00546
988.846, 1.05449
989.512, 1.06971
989.956, 1.08665
990.4, 1.10699
990.844, 1.12393
990.992, 1.11371
991.14, 1.13409
991.88, 1.1442
992.028, 1.16457
992.472, 1.16452
992.62, 1.18489
993.36, 1.195
997.356, 1.22173
998.096, 1.22504
998.096, 1.21484
998.836, 1.19777
1000.46, 1.1568
1000.76, 1.14657
1001.35, 1.12611
1001.5, 1.1057
1001.8, 1.09548
1001.94, 1.10565
1002.39, 1.07502
1002.54, 1.08519
1002.83, 1.07497
1003.13, 1.06474
1003.87, 1.03067
1005.2, 0.999929
1005.42, 0.994806