Folder: polymers/polypropylene/hiejima_2017/115C

Note: polypropylene/hiejima_2017/115C/summary.md
## Raman

#### Curve 1 (Disordered Peak)
**Type**: Skewed Gaussian\
**amplitude:** 0.5\
**center** 970.3\
**σ** 5.9
**σ2** 4.5


#### Curve 2 (Ordered Peak)
**Type**:Skewed Gaussian\
**amplitude** 0.3\
**center** 996.0\
**σ** 4.7\
**σ2** 5.0


## S<sup>2</sup>
**Disordered Curve Integrated Area:** 6.259984\
**Ordered Curve Integrated Area:** 3.350161\
**S<sup>2</sup>:** 0.3486






Data extracted from Figure 5a of [1]


[1]Y. Hiejima, K. Takeda, and K. Nitta, Macromolecules 50, 5867 (2017).



https://doi.org/10.1021/acs.macromol.7b00229

Note: README.md
Data Extraction Repository for
R.A Makin, K.R. York,  A.S. Messecar, and S.M. Durbin, “Quantitative Disorder Analysis and Particle Removal Efficiency of Polypropylene-Based Masks”


### References

## Polypropylene
[1]Y. Hiejima, K. Takeda, and K. Nitta, Macromolecules 50, 5867 (2017). 
https://doi.org/10.1021/acs.macromol.7b00229



[2] H. Li, W. Wu, M. M. Bubakir, H. Chen, X. Zhong, Z. Liu, Y. Ding, and W. Yang, J. Appl. Polym. Sci. 131, 40080 (2014).  
https://doi.org/10.1002/app.40080


[3] S. Lee, A. R. Cho, D. Park, J. K. Kim, K. S. Han, I.-J. Yoon, M. H. Lee, and J. Nah, ACS Applied Materials & Interfaces (2019).
https://doi.org/10.1021/acsami.8b19741


## PBI

[1] S. Lee, A. R. Cho, D. Park, J. K. Kim, K. S. Han, I.-J. Yoon, M. H. Lee, and J. Nah, ACS Applied Materials & Interfaces (2019).
https://doi.org/10.1021/acsami.8b19741


## Polyester


[1] I. E. Agranovski, R. Huang, O. V. Pyankov, I. S. Altman, and S. A. Grinshpun, Aerosol Science and Technology 40, 963 (2006).
https://doi.org/10.1080/02786820600833203


## PP/PB-BCS

[1] J. Liu, X. Zhang, H. Zhang, L. Zheng, C. Huang, H. Wu, R. Wang, and X. Jin, RSC Adv. 7, 43879 (2017).

https://doi.org/10.1039/C7RA07694K

File: raman_peaks.csv
956.952, 0.971513
957.692, 0.978224
957.914, 0.983296
958.654, 1.0002
959.394, 1.01711
959.912, 1.02894
960.208, 1.03571
961.096, 1.05939
961.244, 1.06617
961.392, 1.07975
961.54, 1.08653
961.984, 1.09667
963.464, 1.15767
963.76, 1.17123
963.908, 1.17801
964.944, 1.23226
965.24, 1.24242
965.684, 1.26616
965.906, 1.28313
966.128, 1.2899
966.276, 1.31027
966.572, 1.31703
966.72, 1.33401
966.868, 1.34419
970.124, 1.39648
971.16, 1.40146
971.9, 1.36739
972.64, 1.35032
972.64, 1.34012
972.936, 1.32649
973.232, 1.31626
973.602, 1.29073
973.824, 1.28221
974.046, 1.2669
974.268, 1.24818
974.416, 1.24136
974.712, 1.23114
975.008, 1.20391
975.304, 1.19708
975.896, 1.14944
976.488, 1.11199
976.71, 1.10177
976.932, 1.09495
977.228, 1.07112
977.524, 1.06429
977.524, 1.0575
978.116, 1.03364
978.412, 1.03021
978.634, 1.01489
979.3, 0.999519
980.484, 0.965399
981.964, 0.946538
982.408, 0.943088
983.444, 0.934473
983.74, 0.93104
984.48, 0.930955
984.776, 0.934319
985.516, 0.944429
986.182, 0.959644
986.552, 0.963
987.514, 0.979881
988.032, 0.991715
988.328, 0.998478
989.068, 1.01878
989.068, 1.01199
989.66, 1.03231
990.03, 1.04756
990.4, 1.06281
990.696, 1.06617
990.844, 1.07975
991.14, 1.08311
991.732, 1.11023
992.028, 1.11359
992.62, 1.13392
993.36, 1.16442
994.026, 1.17963
995.58, 1.19474
996.32, 1.19636
996.912, 1.19119
998.096, 1.17746
998.392, 1.17063
998.688, 1.1706
998.688, 1.1638
998.91, 1.15868
999.724, 1.1331
1000.32, 1.11943
1000.46, 1.11262
1000.76, 1.10239
1002.31, 1.04614
1002.76, 1.03589
1002.98, 1.02397
1003.28, 1.01714
1003.57, 1.01371
1003.94, 0.998375
1004.02, 0.993269
1004.24, 0.991544
1004.9, 0.982972
1005.35, 0.976124
1005.35, 0.969327