Folder: polymers/polypropylene/hiejima_2017/120C

Note: polypropylene/hiejima_2017/120C/summary.md
## Raman

#### Curve 1 (Disordered Peak)
**Type**: Skewed Gaussian\
**amplitude:** 0.5\
**center** 970.1\
**σ** 6.0
**σ2** 4.9


#### Curve 2 (Ordered Peak)
**Type**:Skewed Gaussian\
**amplitude** 0.3\
**center** 996.3\
**σ** 5.3\
**σ2** 5.1


## S<sup>2</sup>
**Disordered Curve Integrated Area:** 6.654954\
**Ordered Curve Integrated Area:** 3.665262\
**S<sup>2</sup>:** 0.3552







Data extracted from Figure 5a of [1]


[1]Y. Hiejima, K. Takeda, and K. Nitta, Macromolecules 50, 5867 (2017).



https://doi.org/10.1021/acs.macromol.7b00229

Note: README.md
Data Extraction Repository for
R.A Makin, K.R. York,  A.S. Messecar, and S.M. Durbin, “Quantitative Disorder Analysis and Particle Removal Efficiency of Polypropylene-Based Masks”


### References

## Polypropylene
[1]Y. Hiejima, K. Takeda, and K. Nitta, Macromolecules 50, 5867 (2017). 
https://doi.org/10.1021/acs.macromol.7b00229



[2] H. Li, W. Wu, M. M. Bubakir, H. Chen, X. Zhong, Z. Liu, Y. Ding, and W. Yang, J. Appl. Polym. Sci. 131, 40080 (2014).  
https://doi.org/10.1002/app.40080


[3] S. Lee, A. R. Cho, D. Park, J. K. Kim, K. S. Han, I.-J. Yoon, M. H. Lee, and J. Nah, ACS Applied Materials & Interfaces (2019).
https://doi.org/10.1021/acsami.8b19741


## PBI

[1] S. Lee, A. R. Cho, D. Park, J. K. Kim, K. S. Han, I.-J. Yoon, M. H. Lee, and J. Nah, ACS Applied Materials & Interfaces (2019).
https://doi.org/10.1021/acsami.8b19741


## Polyester


[1] I. E. Agranovski, R. Huang, O. V. Pyankov, I. S. Altman, and S. A. Grinshpun, Aerosol Science and Technology 40, 963 (2006).
https://doi.org/10.1080/02786820600833203


## PP/PB-BCS

[1] J. Liu, X. Zhang, H. Zhang, L. Zheng, C. Huang, H. Wu, R. Wang, and X. Jin, RSC Adv. 7, 43879 (2017).

https://doi.org/10.1039/C7RA07694K

File: raman_peaks.csv
958.58, 0.967927
960.134, 1.00343
961.54, 1.05934
962.28, 1.07285
962.428, 1.07963
962.576, 1.08641
965.684, 1.24237
968.94, 1.35414
969.68, 1.35745
970.05, 1.36081
970.42, 1.36417
970.42, 1.35737
971.456, 1.34705
971.752, 1.33003
972.196, 1.30959
972.64, 1.30274
972.64, 1.28915
972.788, 1.29593
972.788, 1.28233
973.528, 1.26186
973.824, 1.24483
973.972, 1.23802
974.12, 1.20742
974.268, 1.22099
974.564, 1.20057
975.304, 1.14951
976.34, 1.10181
976.932, 1.06096
977.376, 1.02353
978.856, 0.975782
979.448, 0.955324
979.966, 0.929776
981.816, 0.904075
982.26, 0.900626
984.036, 0.907218
984.036, 0.900421
984.332, 0.903785
985.516, 0.913844
986.552, 0.920521
987.588, 0.940791
989.66, 1.00172
990.4, 1.02543
991.436, 1.06269
992.176, 1.0762
994.322, 1.13882
996.764, 1.15383
997.652, 1.14013
999.206, 1.11107
1000.46, 1.07864
1000.61, 1.07182
1001.28, 1.04286
1001.8, 1.02751
1002.68, 1.00702
1003.5, 0.97124
1003.79, 0.964409
1004.61, 0.945624