Folder: polymers/polypropylene/hiejima_2017/125C

Note: polypropylene/hiejima_2017/125C/summary.md
## Raman

#### Curve 1 (Disordered Peak)
**Type**: Skewed Gaussian\
**amplitude:** 0.5\
**center** 970.2\
**σ** 6.3
**σ2** 4.7


#### Curve 2 (Ordered Peak)
**Type**:Skewed Gaussian\
**amplitude** 0.3\
**center** 996.1\
**σ** 5.0\
**σ2** 5.2


## S<sup>2</sup>
**Disordered Curve Integrated Area:** 6.753256\
**Ordered Curve Integrated Area:** 3.485601\
**S<sup>2</sup>:** 0.3404







Data extracted from Figure 5a of [1]


[1]Y. Hiejima, K. Takeda, and K. Nitta, Macromolecules 50, 5867 (2017).



https://doi.org/10.1021/acs.macromol.7b00229

Note: README.md
Data Extraction Repository for
R.A Makin, K.R. York,  A.S. Messecar, and S.M. Durbin, “Quantitative Disorder Analysis and Particle Removal Efficiency of Polypropylene-Based Masks”


### References

## Polypropylene
[1]Y. Hiejima, K. Takeda, and K. Nitta, Macromolecules 50, 5867 (2017). 
https://doi.org/10.1021/acs.macromol.7b00229



[2] H. Li, W. Wu, M. M. Bubakir, H. Chen, X. Zhong, Z. Liu, Y. Ding, and W. Yang, J. Appl. Polym. Sci. 131, 40080 (2014).  
https://doi.org/10.1002/app.40080


[3] S. Lee, A. R. Cho, D. Park, J. K. Kim, K. S. Han, I.-J. Yoon, M. H. Lee, and J. Nah, ACS Applied Materials & Interfaces (2019).
https://doi.org/10.1021/acsami.8b19741


## PBI

[1] S. Lee, A. R. Cho, D. Park, J. K. Kim, K. S. Han, I.-J. Yoon, M. H. Lee, and J. Nah, ACS Applied Materials & Interfaces (2019).
https://doi.org/10.1021/acsami.8b19741


## Polyester


[1] I. E. Agranovski, R. Huang, O. V. Pyankov, I. S. Altman, and S. A. Grinshpun, Aerosol Science and Technology 40, 963 (2006).
https://doi.org/10.1080/02786820600833203


## PP/PB-BCS

[1] J. Liu, X. Zhang, H. Zhang, L. Zheng, C. Huang, H. Wu, R. Wang, and X. Jin, RSC Adv. 7, 43879 (2017).

https://doi.org/10.1039/C7RA07694K

File: raman_peaks.csv
957.1, 0.923919
960.356, 1.00171
962.428, 1.07283
967.904, 1.31008
968.2, 1.32024
969.828, 1.34384
970.124, 1.33701
972.196, 1.2926
972.936, 1.25853
973.084, 1.25171
973.676, 1.22786
975.304, 1.12232
977.08, 1.02017
978.56, 0.945231
980.114, 0.905971
980.632, 0.894017
981.816, 0.87349
982.26, 0.870041
982.704, 0.873388
984.036, 0.869836
984.332, 0.8732
986.404, 0.896749
987.144, 0.903461
987.366, 0.918728
988.032, 0.923748
988.624, 0.947468
988.624, 0.937273
988.92, 0.954231
989.364, 0.964375
989.586, 0.969447
989.956, 0.981298
990.696, 0.994806
990.844, 1.01178
990.992, 1.00497
991.584, 1.02529
992.028, 1.05242
992.176, 1.04561
993.73, 1.08451
994.1, 1.10316
994.47, 1.11161
994.766, 1.11838
996.468, 1.11988
998.54, 1.09585
1000.32, 1.04127
1000.46, 1.03446
1000.61, 1.04124
1001.2, 1.01398
1001.8, 0.996924
1001.94, 0.99011
1002.24, 0.993474
1002.54, 0.97305
1003.13, 0.959388
1003.72, 0.945726
1004.24, 0.933773
1005.2, 0.911572