Folder: polymers/polypropylene/hiejima_2017/130C

Note: polypropylene/hiejima_2017/130C/summary.md
## Raman

#### Curve 1 (Disordered Peak)
**Type**: Skewed Gaussian\
**amplitude:** 0.5\
**center** 970.0\
**σ** 5.8
**σ2** 4.3


#### Curve 2 (Ordered Peak)
**Type**:Skewed Gaussian\
**amplitude** 0.3\
**center** 996.2\
**σ** 4.8\
**σ2** 4.8


## S<sup>2</sup>
**Disordered Curve Integrated Area:** 5.803065\
**Ordered Curve Integrated Area:** 3.087123\
**S<sup>2</sup>:** 0.3473











Data extracted from Figure 5a of [1]


[1]Y. Hiejima, K. Takeda, and K. Nitta, Macromolecules 50, 5867 (2017).



https://doi.org/10.1021/acs.macromol.7b00229

Note: README.md
Data Extraction Repository for
R.A Makin, K.R. York,  A.S. Messecar, and S.M. Durbin, “Quantitative Disorder Analysis and Particle Removal Efficiency of Polypropylene-Based Masks”


### References

## Polypropylene
[1]Y. Hiejima, K. Takeda, and K. Nitta, Macromolecules 50, 5867 (2017). 
https://doi.org/10.1021/acs.macromol.7b00229



[2] H. Li, W. Wu, M. M. Bubakir, H. Chen, X. Zhong, Z. Liu, Y. Ding, and W. Yang, J. Appl. Polym. Sci. 131, 40080 (2014).  
https://doi.org/10.1002/app.40080


[3] S. Lee, A. R. Cho, D. Park, J. K. Kim, K. S. Han, I.-J. Yoon, M. H. Lee, and J. Nah, ACS Applied Materials & Interfaces (2019).
https://doi.org/10.1021/acsami.8b19741


## PBI

[1] S. Lee, A. R. Cho, D. Park, J. K. Kim, K. S. Han, I.-J. Yoon, M. H. Lee, and J. Nah, ACS Applied Materials & Interfaces (2019).
https://doi.org/10.1021/acsami.8b19741


## Polyester


[1] I. E. Agranovski, R. Huang, O. V. Pyankov, I. S. Altman, and S. A. Grinshpun, Aerosol Science and Technology 40, 963 (2006).
https://doi.org/10.1080/02786820600833203


## PP/PB-BCS

[1] J. Liu, X. Zhang, H. Zhang, L. Zheng, C. Huang, H. Wu, R. Wang, and X. Jin, RSC Adv. 7, 43879 (2017).

https://doi.org/10.1039/C7RA07694K

File: raman_peaks.csv
952.215, 0.780053
952.733, 0.815676
952.955, 0.832642
953.029, 0.846227
953.325, 0.816032
954.139, 0.869887
954.287, 0.839285
955.521, 0.861232
956.359, 0.873029
956.804, 0.893368
957.544, 0.879689
958.086, 0.88699
958.654, 0.932236
959.024, 0.906705
959.418, 0.943475
959.912, 0.947383
960.504, 0.967705
961.466, 0.998179
961.91, 1.01512
962.576, 1.02524
962.65, 1.03882
963.612, 1.07666
964.278, 1.0998
964.352, 1.13038
964.5, 1.07939
964.648, 1.14394
964.87, 1.12522
965.092, 1.16428
965.536, 1.18292
965.684, 1.16591
966.202, 1.20153
966.868, 1.23544
967.608, 1.26254
967.904, 1.29649
968.718, 1.30999
968.94, 1.29977
969.532, 1.28611
969.976, 1.2903
970.198, 1.30982
971.012, 1.28933
971.209, 1.26552
971.752, 1.24507
972.432, 1.22392
972.936, 1.18716
973.158, 1.20413
973.306, 1.18202
973.824, 1.15138
973.972, 1.11908
974.046, 1.13521
974.49, 1.12411
974.638, 1.07652
974.86, 1.0544
975.6, 1.08151
975.6, 1.04752
975.6, 1.02034
975.896, 0.999912
976.266, 0.991373
976.266, 0.981178
976.71, 0.953941
976.734, 0.972629
977.598, 0.957236
977.82, 0.924927
978.017, 0.941329
978.56, 0.902752
979.004, 0.885709
979.078, 0.877205
979.522, 0.88395
979.818, 0.868623
980.484, 0.874494
981.076, 0.864514
984.406, 0.851102
985.812, 0.861135
986.774, 0.881414
988.18, 0.882951
988.328, 0.910121
988.772, 0.925362
988.772, 0.896476
989.29, 0.938896
990.03, 0.935412
990.4, 0.969353
990.622, 0.950636
991.14, 0.991356
991.584, 1.0049
992.102, 1.01843
992.62, 1.03876
993.508, 1.06075
994.322, 1.07085
995.358, 1.08942
995.802, 1.08937
996.394, 1.0893
998.022, 1.07892
998.54, 1.06413
999.329, 1.05215
1000.69, 0.990255
1000.76, 1.01064
1001.06, 0.972371
1001.4, 0.986208
1001.94, 0.975667
1002.09, 0.947613
1002.63, 0.953781
1002.83, 0.92374
1003.05, 0.935608
1003.79, 0.92193
1004.09, 0.896408
1004.76, 0.891234
1005.2, 0.89628
1005.79, 0.863927
1006.38, 0.850266
1007.05, 0.849339
1007.57, 0.833137
1007.79, 0.851803
1008.16, 0.836467
1008.46, 0.850027