Folder: polymers/polypropylene/hiejima_2017/160C

Note: polypropylene/hiejima_2017/160C/summary.md
## Raman

#### Curve 1 (Disordered Peak)
**Type**: Skewed Gaussian\
**amplitude:** 0.5\
**center** 969.9\
**σ** 8.8
**σ2** 5.4


#### Curve 2 (Ordered Peak)
**Type**:Skewed Gaussian\
**amplitude** 0.2\
**center** 996.1\
**σ** 5.6\
**σ2** 9.7


## S<sup>2</sup>
**Disordered Curve Integrated Area:** 9.663728\
**Ordered Curve Integrated Area:** 4.763766\
**S<sup>2</sup>:** 0.3302








Data extracted from Figure 5a of [1]


[1]Y. Hiejima, K. Takeda, and K. Nitta, Macromolecules 50, 5867 (2017).



https://doi.org/10.1021/acs.macromol.7b00229

Note: README.md
Data Extraction Repository for
R.A Makin, K.R. York,  A.S. Messecar, and S.M. Durbin, “Quantitative Disorder Analysis and Particle Removal Efficiency of Polypropylene-Based Masks”


### References

## Polypropylene
[1]Y. Hiejima, K. Takeda, and K. Nitta, Macromolecules 50, 5867 (2017). 
https://doi.org/10.1021/acs.macromol.7b00229



[2] H. Li, W. Wu, M. M. Bubakir, H. Chen, X. Zhong, Z. Liu, Y. Ding, and W. Yang, J. Appl. Polym. Sci. 131, 40080 (2014).  
https://doi.org/10.1002/app.40080


[3] S. Lee, A. R. Cho, D. Park, J. K. Kim, K. S. Han, I.-J. Yoon, M. H. Lee, and J. Nah, ACS Applied Materials & Interfaces (2019).
https://doi.org/10.1021/acsami.8b19741


## PBI

[1] S. Lee, A. R. Cho, D. Park, J. K. Kim, K. S. Han, I.-J. Yoon, M. H. Lee, and J. Nah, ACS Applied Materials & Interfaces (2019).
https://doi.org/10.1021/acsami.8b19741


## Polyester


[1] I. E. Agranovski, R. Huang, O. V. Pyankov, I. S. Altman, and S. A. Grinshpun, Aerosol Science and Technology 40, 963 (2006).
https://doi.org/10.1080/02786820600833203


## PP/PB-BCS

[1] J. Liu, X. Zhang, H. Zhang, L. Zheng, C. Huang, H. Wu, R. Wang, and X. Jin, RSC Adv. 7, 43879 (2017).

https://doi.org/10.1039/C7RA07694K

File: raman_peaks.csv
951.771, 0.775007
952.437, 0.777054
952.659, 0.795294
953.399, 0.776518
953.769, 0.784122
954.337, 0.78434
954.435, 0.801037
954.953, 0.802251
955.56, 0.803456
956.137, 0.809336
956.285, 0.822063
956.804, 0.860518
957.1, 0.835562
957.544, 0.83721
958.58, 0.865977
958.728, 0.879553
959.172, 0.893095
959.32, 0.879484
959.675, 0.900513
960.43, 0.962616
960.43, 0.916738
960.948, 0.93367
961.096, 0.984628
961.244, 0.952893
961.614, 0.958231
961.762, 0.979454
961.836, 1.01513
962.206, 1.03548
962.329, 0.99638
962.502, 1.0091
962.872, 1.04559
962.946, 1.02958
962.946, 1.05493
963.316, 1.07273
963.358, 1.05403
963.686, 1.07169
963.76, 1.09986
964.13, 1.11851
964.426, 1.09044
964.5, 1.10488
964.796, 1.11645
964.944, 1.1575
965.166, 1.12561
965.536, 1.15913
966.054, 1.16587
966.054, 1.14208
967.016, 1.18445
967.016, 1.17085
967.953, 1.20246
968.57, 1.20551
969.162, 1.20374
969.902, 1.20111
970.642, 1.19507
971.456, 1.16354
971.678, 1.15502
972.294, 1.1255
972.788, 1.11581
973.01, 1.0937
973.528, 1.10723
973.676, 1.05794
973.972, 1.0715
974.268, 1.05787
974.416, 1.00348
974.49, 1.01877
974.712, 0.991553
974.934, 1.01277
975.156, 0.966014
976.488, 0.916584
976.71, 0.906364
976.784, 0.874071
977.316, 0.838554
977.82, 0.812781
978.19, 0.807641
978.19, 0.839925
978.486, 0.826298
978.56, 0.786642
979.102, 0.796774
979.152, 0.761653
979.3, 0.778627
979.966, 0.73947
980.04, 0.76155
981.742, 0.70698
983.444, 0.689792
983.888, 0.689741
985.664, 0.699731
987.44, 0.723315
988.18, 0.740221
989.364, 0.770669
990.104, 0.787576
990.992, 0.807863
991.288, 0.821422
991.954, 0.836638
992.62, 0.851854
993.409, 0.868754
994.396, 0.885632
995.728, 0.907568
996.468, 0.902385
999.576, 0.891831
1000.61, 0.867923
1000.76, 0.884898
1001.5, 0.86952
1002.31, 0.845638
1002.39, 0.837133
1002.83, 0.838781
1003.42, 0.832105
1003.94, 0.826334
1004.46, 0.818203
1005.2, 0.802825
1005.59, 0.80901
1006.31, 0.806096
1007.35, 0.789834