Folder: polymers/polypropylene/hiejima_2017/30C

Note: polypropylene/hiejima_2017/30C/summary.md
## Raman

#### Curve 1 (Disordered Peak)
**Type**: Skewed Gaussian\
**amplitude:** 0.8\
**center** 970.8\
**σ** 5.4
**σ2** 4.2


#### Curve 2 (Ordered Peak)
**Type**:Skewed Gaussian\
**amplitude** 0.5\
**center** 995.6\
**σ** 5.3\
**σ2** 4.6


## S<sup>2</sup>
**Disordered Curve Integrated Area:** 9.736076\
**Ordered Curve Integrated Area:** 6.320936\
**S<sup>2</sup>:** 0.3937






Data extracted from Figure 5a of [1]


[1]Y. Hiejima, K. Takeda, and K. Nitta, Macromolecules 50, 5867 (2017).



https://doi.org/10.1021/acs.macromol.7b00229

Note: README.md
Data Extraction Repository for
R.A Makin, K.R. York,  A.S. Messecar, and S.M. Durbin, “Quantitative Disorder Analysis and Particle Removal Efficiency of Polypropylene-Based Masks”


### References

## Polypropylene
[1]Y. Hiejima, K. Takeda, and K. Nitta, Macromolecules 50, 5867 (2017). 
https://doi.org/10.1021/acs.macromol.7b00229



[2] H. Li, W. Wu, M. M. Bubakir, H. Chen, X. Zhong, Z. Liu, Y. Ding, and W. Yang, J. Appl. Polym. Sci. 131, 40080 (2014).  
https://doi.org/10.1002/app.40080


[3] S. Lee, A. R. Cho, D. Park, J. K. Kim, K. S. Han, I.-J. Yoon, M. H. Lee, and J. Nah, ACS Applied Materials & Interfaces (2019).
https://doi.org/10.1021/acsami.8b19741


## PBI

[1] S. Lee, A. R. Cho, D. Park, J. K. Kim, K. S. Han, I.-J. Yoon, M. H. Lee, and J. Nah, ACS Applied Materials & Interfaces (2019).
https://doi.org/10.1021/acsami.8b19741


## Polyester


[1] I. E. Agranovski, R. Huang, O. V. Pyankov, I. S. Altman, and S. A. Grinshpun, Aerosol Science and Technology 40, 963 (2006).
https://doi.org/10.1080/02786820600833203


## PP/PB-BCS

[1] J. Liu, X. Zhang, H. Zhang, L. Zheng, C. Huang, H. Wu, R. Wang, and X. Jin, RSC Adv. 7, 43879 (2017).

https://doi.org/10.1039/C7RA07694K

File: raman_peaks.csv
956.507, 1.49151
957.396, 1.4999
957.84, 1.51854
958.432, 1.53547
959.122, 1.55464
959.912, 1.5908
960.726, 1.62696
961.466, 1.66085
961.984, 1.69138
962.354, 1.71003
962.724, 1.73547
963.316, 1.75693
963.538, 1.79145
964.13, 1.84066
964.5, 1.8712
965.018, 1.92042
965.536, 1.95094
965.758, 1.98745
966.276, 2.04091
966.498, 2.06128
966.868, 2.10202
967.164, 2.12237
967.46, 2.14613
968.052, 2.17664
968.422, 2.20379
968.866, 2.21903
969.532, 2.2467
970.025, 2.26817
970.716, 2.27404
971.604, 2.25609
972.097, 2.22489
972.64, 2.20217
973.158, 2.15566
973.454, 2.13184
973.824, 2.09102
974.046, 2.0723
974.638, 2.00597
975.008, 1.96514
975.378, 1.92092
975.748, 1.8835
975.896, 1.86309
976.118, 1.83758
976.858, 1.76103
977.154, 1.73211
977.45, 1.70319
977.746, 1.67937
978.264, 1.63286
979.374, 1.57213
980.04, 1.54062
980.661, 1.52746
984.11, 1.52061
985.072, 1.54032
986.108, 1.56286
986.478, 1.59
987.218, 1.6239
988.624, 1.68831
989.216, 1.71542
989.808, 1.74254
990.326, 1.77817
990.622, 1.79852
991.14, 1.82225
991.732, 1.8573
992.324, 1.89858
992.916, 1.92569
993.286, 1.9384
994.051, 1.95898
995.21, 1.9798
995.757, 1.9777
996.369, 1.96041
998.318, 1.90086
999.132, 1.85475
999.724, 1.81616
999.946, 1.80084
1000.46, 1.7617
1000.76, 1.74128
1001.35, 1.69817
1001.87, 1.66469
1002.76, 1.61531
1003.72, 1.57612
1005.57, 1.51771