Folder: polymers/polypropylene/hiejima_2017/35C

Note: polypropylene/hiejima_2017/35C/summary.md
## Raman

#### Curve 1 (Disordered Peak)
**Type**: Skewed Gaussian\
**amplitude:** 0.8\
**center** 970.7\
**σ** 5.3
**σ2** 4.0


#### Curve 2 (Ordered Peak)
**Type**:Skewed Gaussian\
**amplitude** 0.5\
**center** 995.6\
**σ** 5.1\
**σ2** 4.5


## S<sup>2</sup>
**Disordered Curve Integrated Area:** 9.049714\
**Ordered Curve Integrated Area:** 5.851852\
**S<sup>2</sup>:** 0.3927







Data extracted from Figure 5a of [1]


[1]Y. Hiejima, K. Takeda, and K. Nitta, Macromolecules 50, 5867 (2017).



https://doi.org/10.1021/acs.macromol.7b00229

Note: README.md
Data Extraction Repository for
R.A Makin, K.R. York,  A.S. Messecar, and S.M. Durbin, “Quantitative Disorder Analysis and Particle Removal Efficiency of Polypropylene-Based Masks”


### References

## Polypropylene
[1]Y. Hiejima, K. Takeda, and K. Nitta, Macromolecules 50, 5867 (2017). 
https://doi.org/10.1021/acs.macromol.7b00229



[2] H. Li, W. Wu, M. M. Bubakir, H. Chen, X. Zhong, Z. Liu, Y. Ding, and W. Yang, J. Appl. Polym. Sci. 131, 40080 (2014).  
https://doi.org/10.1002/app.40080


[3] S. Lee, A. R. Cho, D. Park, J. K. Kim, K. S. Han, I.-J. Yoon, M. H. Lee, and J. Nah, ACS Applied Materials & Interfaces (2019).
https://doi.org/10.1021/acsami.8b19741


## PBI

[1] S. Lee, A. R. Cho, D. Park, J. K. Kim, K. S. Han, I.-J. Yoon, M. H. Lee, and J. Nah, ACS Applied Materials & Interfaces (2019).
https://doi.org/10.1021/acsami.8b19741


## Polyester


[1] I. E. Agranovski, R. Huang, O. V. Pyankov, I. S. Altman, and S. A. Grinshpun, Aerosol Science and Technology 40, 963 (2006).
https://doi.org/10.1080/02786820600833203


## PP/PB-BCS

[1] J. Liu, X. Zhang, H. Zhang, L. Zheng, C. Huang, H. Wu, R. Wang, and X. Jin, RSC Adv. 7, 43879 (2017).

https://doi.org/10.1039/C7RA07694K

File: raman_peaks.csv
959.098, 1.53709
959.838, 1.56249
960.504, 1.5896
961.17, 1.62181
962.576, 1.69471
967.016, 2.06971
968.348, 2.16811
969.088, 2.19861
969.31, 2.20708
969.606, 2.22064
969.828, 2.23251
970.124, 2.24097
970.938, 2.24088
971.308, 2.23404
971.9, 2.21528
972.048, 2.20507
972.64, 2.16082
972.788, 2.14721
973.38, 2.06728
973.528, 2.05707
973.75, 2.04005
973.824, 2.02815
973.972, 2.01964
973.972, 2.01114
974.12, 1.99923
974.268, 1.98562
974.342, 1.97456
974.465, 1.95728
974.613, 1.9397
974.712, 1.9278
974.86, 1.91758
974.86, 1.90909
975.008, 1.90057
975.082, 1.88867
975.205, 1.87167
975.304, 1.85976
975.378, 1.85041
975.501, 1.83482
975.674, 1.82234
975.748, 1.81043
975.896, 1.80192
975.97, 1.79087
976.118, 1.77726
976.192, 1.7662
976.34, 1.75769
976.414, 1.74749
976.562, 1.73303
976.71, 1.71942
976.858, 1.70326
976.932, 1.69135
977.08, 1.68284
977.228, 1.66753
977.45, 1.64882
977.672, 1.6318
977.82, 1.61932
977.968, 1.60458
979.744, 1.53301
979.966, 1.52618
980.558, 1.50658
980.928, 1.50115
984.036, 1.49853
984.332, 1.50246
985.072, 1.51653
985.516, 1.52894
985.738, 1.53571
986.256, 1.55265
986.478, 1.56112
987.144, 1.59332
987.366, 1.60349
987.884, 1.62552
988.624, 1.65942
988.772, 1.6679
989.438, 1.69841
990.104, 1.73231
990.844, 1.7815
990.992, 1.78998
991.584, 1.8171
992.102, 1.84763
992.324, 1.8595
992.842, 1.88407
993.138, 1.89848
993.582, 1.91627
993.878, 1.92728
994.174, 1.93744
994.544, 1.9459
994.988, 1.95491
995.506, 1.95088
995.876, 1.94744
996.542, 1.93122
996.838, 1.92354
997.134, 1.91501
997.43, 1.90648
997.726, 1.89625
998.022, 1.88857
999.28, 1.81791
999.428, 1.8077
1000.17, 1.75154
1002.39, 1.60856
1003.79, 1.55232
1004.39, 1.52846
1004.76, 1.51993
1005.2, 1.51138