Folder: polymers/polypropylene/hiejima_2017/40C

Note: polypropylene/hiejima_2017/40C/summary.md
## Raman

#### Curve 1 (Disordered Peak)
**Type**: Skewed Gaussian\
**amplitude:** 0.8\
**center** 970.8\
**σ** 5.3
**σ2** 4.1


#### Curve 2 (Ordered Peak)
**Type**:Skewed Gaussian\
**amplitude** 0.5\
**center** 995.7\
**σ** 5.0\
**σ2** 4.4


## S<sup>2</sup>
**Disordered Curve Integrated Area:** 8.836932\
**Ordered Curve Integrated Area:** 5.586120\
**S<sup>2</sup>:** 0.3873





Data extracted from Figure 5a of [1]


[1]Y. Hiejima, K. Takeda, and K. Nitta, Macromolecules 50, 5867 (2017).



https://doi.org/10.1021/acs.macromol.7b00229

Note: README.md
Data Extraction Repository for
R.A Makin, K.R. York,  A.S. Messecar, and S.M. Durbin, “Quantitative Disorder Analysis and Particle Removal Efficiency of Polypropylene-Based Masks”


### References

## Polypropylene
[1]Y. Hiejima, K. Takeda, and K. Nitta, Macromolecules 50, 5867 (2017). 
https://doi.org/10.1021/acs.macromol.7b00229



[2] H. Li, W. Wu, M. M. Bubakir, H. Chen, X. Zhong, Z. Liu, Y. Ding, and W. Yang, J. Appl. Polym. Sci. 131, 40080 (2014).  
https://doi.org/10.1002/app.40080


[3] S. Lee, A. R. Cho, D. Park, J. K. Kim, K. S. Han, I.-J. Yoon, M. H. Lee, and J. Nah, ACS Applied Materials & Interfaces (2019).
https://doi.org/10.1021/acsami.8b19741


## PBI

[1] S. Lee, A. R. Cho, D. Park, J. K. Kim, K. S. Han, I.-J. Yoon, M. H. Lee, and J. Nah, ACS Applied Materials & Interfaces (2019).
https://doi.org/10.1021/acsami.8b19741


## Polyester


[1] I. E. Agranovski, R. Huang, O. V. Pyankov, I. S. Altman, and S. A. Grinshpun, Aerosol Science and Technology 40, 963 (2006).
https://doi.org/10.1080/02786820600833203


## PP/PB-BCS

[1] J. Liu, X. Zhang, H. Zhang, L. Zheng, C. Huang, H. Wu, R. Wang, and X. Jin, RSC Adv. 7, 43879 (2017).

https://doi.org/10.1039/C7RA07694K

File: raman_peaks.csv
956.507, 1.44818
957.47, 1.46081
957.988, 1.46755
958.284, 1.47545
958.58, 1.48787
958.95, 1.49123
959.32, 1.50478
959.764, 1.52059
960.208, 1.53753
960.652, 1.559
960.948, 1.57029
961.466, 1.59799
961.762, 1.60815
961.836, 1.62003
962.058, 1.6268
962.28, 1.64037
962.502, 1.64714
962.576, 1.65959
962.798, 1.6726
963.094, 1.68785
963.242, 1.69973
963.39, 1.71331
963.538, 1.72688
963.834, 1.73959
963.982, 1.75402
964.204, 1.77948
964.204, 1.76929
964.426, 1.79135
964.574, 1.80153
964.796, 1.81679
964.87, 1.83208
965.018, 1.8465
965.24, 1.86177
965.437, 1.87902
965.536, 1.90167
965.684, 1.88862
965.795, 1.90419
965.906, 1.91692
966.054, 1.93219
966.276, 1.94576
966.35, 1.96274
966.498, 1.97547
966.646, 1.98905
966.794, 2.00007
966.942, 2.01535
967.09, 2.02893
967.312, 2.04419
967.534, 2.06116
967.682, 2.07558
967.83, 2.09001
968.2, 2.10186
968.496, 2.11882
968.866, 2.12897
969.162, 2.14593
969.162, 2.13573
969.68, 2.15946
969.828, 2.17417
970.42, 2.17977
970.864, 2.18142
971.234, 2.17628
971.604, 2.16434
972.048, 2.1456
972.492, 2.12176
972.64, 2.10475
972.936, 2.08432
973.133, 2.07694
973.38, 2.06048
973.38, 2.06558
973.454, 2.04603
973.626, 2.0293
973.824, 2.01116
973.898, 1.99416
974.12, 1.97714
974.12, 1.96355
974.342, 1.95757
974.416, 1.94057
974.49, 1.92612
974.564, 1.91762
974.638, 1.90317
974.786, 1.8921
974.86, 1.8785
975.106, 1.86658
975.23, 1.84872
975.378, 1.83172
975.526, 1.81556
975.674, 1.7994
975.822, 1.78324
976.044, 1.76622
976.192, 1.75091
976.414, 1.73389
976.488, 1.71803
976.71, 1.70327
976.932, 1.68201
976.932, 1.69305
977.117, 1.66627
977.228, 1.64884
977.376, 1.61824
977.425, 1.63409
977.746, 1.6165
977.82, 1.60346
977.968, 1.58928
978.264, 1.57962
978.412, 1.56714
978.634, 1.55437
978.93, 1.5433
979.201, 1.5308
979.3, 1.51947
979.596, 1.50584
980.114, 1.49049
980.558, 1.47514
981.076, 1.46829
982.112, 1.46137
982.556, 1.45792
983, 1.45447
984.776, 1.47296
985.294, 1.49329
986.552, 1.51863
986.7, 1.52881
987.144, 1.5432
987.44, 1.55591
987.884, 1.56945
988.032, 1.58642
988.402, 1.59658
988.772, 1.61692
989.216, 1.63953
989.364, 1.6531
989.66, 1.6678
989.956, 1.68136
990.178, 1.69662
990.326, 1.7068
990.548, 1.72207
990.844, 1.73563
991.436, 1.75935
991.584, 1.76952
991.954, 1.78987
992.324, 1.80342
992.398, 1.81531
992.694, 1.82547
993.064, 1.84412
993.212, 1.8543
993.508, 1.86785
993.878, 1.87971
995.136, 1.89825
995.876, 1.90156
996.32, 1.89472
996.986, 1.88105
997.504, 1.86173
998.096, 1.84524
998.318, 1.83162
998.614, 1.81969
998.836, 1.80267
998.836, 1.80947
999.132, 1.78565
999.28, 1.77204
999.502, 1.76096
999.65, 1.74735
999.842, 1.72915
999.872, 1.71759
1000.13, 1.71119
1000.32, 1.69885
1000.32, 1.68866
1000.57, 1.68268
1000.72, 1.67204
1000.91, 1.658
1001.13, 1.64778
1001.43, 1.6367
1001.57, 1.62564
1001.8, 1.61202
1001.87, 1.60352
1002.09, 1.5916
1002.46, 1.57287
1002.98, 1.55411
1003.28, 1.53709
1003.72, 1.52118
1004.16, 1.5064
1004.76, 1.49274
1004.9, 1.48253
1005.2, 1.47796
1005.79, 1.46883