Folder: polymers/polypropylene/hiejima_2017/45C

Note: polypropylene/hiejima_2017/45C/summary.md
## Raman

#### Curve 1 (Disordered Peak)
**Type**: Skewed Gaussian\
**amplitude:** 0.7\
**center** 970.8\
**σ** 5.3
**σ2** 3.9


#### Curve 2 (Ordered Peak)
**Type**:Skewed Gaussian\
**amplitude** 0.5\
**center** 996.0\
**σ** 5.1\
**σ2** 4.1


## S<sup>2</sup>
**Disordered Curve Integrated Area:** 8.466528\
**Ordered Curve Integrated Area:** 5.347576\
**S<sup>2</sup>:** 0.3871






Data extracted from Figure 5a of [1]


[1]Y. Hiejima, K. Takeda, and K. Nitta, Macromolecules 50, 5867 (2017).



https://doi.org/10.1021/acs.macromol.7b00229

Note: README.md
Data Extraction Repository for
R.A Makin, K.R. York,  A.S. Messecar, and S.M. Durbin, “Quantitative Disorder Analysis and Particle Removal Efficiency of Polypropylene-Based Masks”


### References

## Polypropylene
[1]Y. Hiejima, K. Takeda, and K. Nitta, Macromolecules 50, 5867 (2017). 
https://doi.org/10.1021/acs.macromol.7b00229



[2] H. Li, W. Wu, M. M. Bubakir, H. Chen, X. Zhong, Z. Liu, Y. Ding, and W. Yang, J. Appl. Polym. Sci. 131, 40080 (2014).  
https://doi.org/10.1002/app.40080


[3] S. Lee, A. R. Cho, D. Park, J. K. Kim, K. S. Han, I.-J. Yoon, M. H. Lee, and J. Nah, ACS Applied Materials & Interfaces (2019).
https://doi.org/10.1021/acsami.8b19741


## PBI

[1] S. Lee, A. R. Cho, D. Park, J. K. Kim, K. S. Han, I.-J. Yoon, M. H. Lee, and J. Nah, ACS Applied Materials & Interfaces (2019).
https://doi.org/10.1021/acsami.8b19741


## Polyester


[1] I. E. Agranovski, R. Huang, O. V. Pyankov, I. S. Altman, and S. A. Grinshpun, Aerosol Science and Technology 40, 963 (2006).
https://doi.org/10.1080/02786820600833203


## PP/PB-BCS

[1] J. Liu, X. Zhang, H. Zhang, L. Zheng, C. Huang, H. Wu, R. Wang, and X. Jin, RSC Adv. 7, 43879 (2017).

https://doi.org/10.1039/C7RA07694K

File: raman_peaks.csv
958.136, 1.44375
958.728, 1.45727
959.172, 1.47081
960.208, 1.50807
961.022, 1.54366
961.54, 1.56909
961.984, 1.58943
962.28, 1.60299
962.428, 1.61657
965.832, 1.84386
966.572, 1.93553
967.016, 2.02384
967.016, 1.97626
967.016, 1.95247
967.608, 2.02377
967.608, 2.00338
967.756, 2.01356
968.644, 2.07123
969.236, 2.09495
969.532, 2.10171
972.122, 2.09121
972.64, 2.06397
972.64, 2.05717
973.75, 1.95679
975.6, 1.74758
977.376, 1.58426
978.116, 1.5264
978.708, 1.50934
979.152, 1.4923
981.964, 1.4308
982.408, 1.42735
984.184, 1.43054
985.664, 1.46096
985.886, 1.47113
986.404, 1.49146
988.92, 1.58632
990.104, 1.63716
991.436, 1.72197
992.028, 1.75078
992.324, 1.76604
994.248, 1.83718
998.392, 1.78913
1000.02, 1.69549
1000.17, 1.69037
1000.61, 1.62915
1000.91, 1.62232
1001.8, 1.57464