Folder: polymers/polypropylene/hiejima_2017/50C

Note: polypropylene/hiejima_2017/50C/summary.md
## Raman

#### Curve 1 (Disordered Peak)
**Type**: Skewed Gaussian\
**amplitude:** 0.7\
**center** 970.8\
**σ** 5.6
**σ2** 4.0


#### Curve 2 (Ordered Peak)
**Type**:Skewed Gaussian\
**amplitude** 0.5\
**center** 995.7\
**σ** 5.1\
**σ2** 4.5


## S<sup>2</sup>
**Disordered Curve Integrated Area:** 8.706106\
**Ordered Curve Integrated Area:** 5.497907\
**S<sup>2</sup>:** 0.3871






Data extracted from Figure 5a of [1]


[1]Y. Hiejima, K. Takeda, and K. Nitta, Macromolecules 50, 5867 (2017).



https://doi.org/10.1021/acs.macromol.7b00229

Note: README.md
Data Extraction Repository for
R.A Makin, K.R. York,  A.S. Messecar, and S.M. Durbin, “Quantitative Disorder Analysis and Particle Removal Efficiency of Polypropylene-Based Masks”


### References

## Polypropylene
[1]Y. Hiejima, K. Takeda, and K. Nitta, Macromolecules 50, 5867 (2017). 
https://doi.org/10.1021/acs.macromol.7b00229



[2] H. Li, W. Wu, M. M. Bubakir, H. Chen, X. Zhong, Z. Liu, Y. Ding, and W. Yang, J. Appl. Polym. Sci. 131, 40080 (2014).  
https://doi.org/10.1002/app.40080


[3] S. Lee, A. R. Cho, D. Park, J. K. Kim, K. S. Han, I.-J. Yoon, M. H. Lee, and J. Nah, ACS Applied Materials & Interfaces (2019).
https://doi.org/10.1021/acsami.8b19741


## PBI

[1] S. Lee, A. R. Cho, D. Park, J. K. Kim, K. S. Han, I.-J. Yoon, M. H. Lee, and J. Nah, ACS Applied Materials & Interfaces (2019).
https://doi.org/10.1021/acsami.8b19741


## Polyester


[1] I. E. Agranovski, R. Huang, O. V. Pyankov, I. S. Altman, and S. A. Grinshpun, Aerosol Science and Technology 40, 963 (2006).
https://doi.org/10.1080/02786820600833203


## PP/PB-BCS

[1] J. Liu, X. Zhang, H. Zhang, L. Zheng, C. Huang, H. Wu, R. Wang, and X. Jin, RSC Adv. 7, 43879 (2017).

https://doi.org/10.1039/C7RA07694K

File: raman_peaks.csv
957.396, 1.40305
958.136, 1.41996
959.912, 1.48092
960.356, 1.49446
961.244, 1.53174
961.54, 1.57249
961.54, 1.56229
961.836, 1.56226
962.132, 1.6064
962.576, 1.63014
963.612, 1.66061
963.76, 1.67079
964.944, 1.75561
967.164, 1.99323
967.904, 2.00334
968.052, 2.02372
968.792, 2.05082
968.792, 2.04062
970.42, 2.08801
970.642, 2.08799
971.604, 2.07088
973.084, 1.99935
973.38, 1.98232
974.416, 1.85646
975.304, 1.768
977.08, 1.58429
979.152, 1.46851
981.076, 1.40711
981.89, 1.39683
982.186, 1.39679
982.26, 1.43077
982.482, 1.39676
982.778, 1.39672
983.074, 1.39669
983.37, 1.39666
985.22, 1.42363
985.664, 1.45756
985.664, 1.42698
986.552, 1.45746
988.254, 1.55411
989.956, 1.60999
990.104, 1.60318
990.4, 1.64052
991.14, 1.68122
993.212, 1.77613
994.544, 1.82016
995.58, 1.82684
998.836, 1.7415
999.724, 1.67683
1000.02, 1.65641
1000.61, 1.61556
1000.91, 1.59513
1001.2, 1.61549
1002.09, 1.56101
1003.87, 1.44866