Folder: polymers/polypropylene/hiejima_2017/55C

Note: polypropylene/hiejima_2017/55C/summary.md
## Raman

#### Curve 1 (Disordered Peak)
**Type**: Skewed Gaussian\
**amplitude:** 0.7\
**center** 970.7\
**σ** 5.4
**σ2** 4.3


#### Curve 2 (Ordered Peak)
**Type**:Skewed Gaussian\
**amplitude** 0.4\
**center** 995.7\
**σ** 4.9\
**σ2** 4.7


## S<sup>2</sup>
**Disordered Curve Integrated Area:** 8.713671\
**Ordered Curve Integrated Area:** 5.386297\
**S<sup>2</sup>:** 0.3820







Data extracted from Figure 5a of [1]


[1]Y. Hiejima, K. Takeda, and K. Nitta, Macromolecules 50, 5867 (2017).



https://doi.org/10.1021/acs.macromol.7b00229

Note: README.md
Data Extraction Repository for
R.A Makin, K.R. York,  A.S. Messecar, and S.M. Durbin, “Quantitative Disorder Analysis and Particle Removal Efficiency of Polypropylene-Based Masks”


### References

## Polypropylene
[1]Y. Hiejima, K. Takeda, and K. Nitta, Macromolecules 50, 5867 (2017). 
https://doi.org/10.1021/acs.macromol.7b00229



[2] H. Li, W. Wu, M. M. Bubakir, H. Chen, X. Zhong, Z. Liu, Y. Ding, and W. Yang, J. Appl. Polym. Sci. 131, 40080 (2014).  
https://doi.org/10.1002/app.40080


[3] S. Lee, A. R. Cho, D. Park, J. K. Kim, K. S. Han, I.-J. Yoon, M. H. Lee, and J. Nah, ACS Applied Materials & Interfaces (2019).
https://doi.org/10.1021/acsami.8b19741


## PBI

[1] S. Lee, A. R. Cho, D. Park, J. K. Kim, K. S. Han, I.-J. Yoon, M. H. Lee, and J. Nah, ACS Applied Materials & Interfaces (2019).
https://doi.org/10.1021/acsami.8b19741


## Polyester


[1] I. E. Agranovski, R. Huang, O. V. Pyankov, I. S. Altman, and S. A. Grinshpun, Aerosol Science and Technology 40, 963 (2006).
https://doi.org/10.1080/02786820600833203


## PP/PB-BCS

[1] J. Liu, X. Zhang, H. Zhang, L. Zheng, C. Huang, H. Wu, R. Wang, and X. Jin, RSC Adv. 7, 43879 (2017).

https://doi.org/10.1039/C7RA07694K

File: raman_peaks.csv
956.952, 1.36232
958.136, 1.37578
958.432, 1.38254
959.764, 1.41977
960.356, 1.44689
962.576, 1.55198
963.316, 1.60287
963.76, 1.6368
965.61, 1.78781
966.276, 1.83701
968.052, 1.96595
968.94, 2.00322
970.05, 2.03878
970.346, 2.04044
970.642, 2.04041
971.752, 2.01989
972.048, 2.00966
974.86, 1.76466
976.34, 1.62855
976.784, 1.60132
976.932, 1.5911
977.82, 1.50434
978.708, 1.45496
981.076, 1.37313
983.74, 1.35413
989.808, 1.54544
990.252, 1.56918
991.14, 1.62005
991.288, 1.63023
991.51, 1.6421
992.768, 1.70142
993.508, 1.73532
993.804, 1.74208
994.1, 1.75224
996.172, 1.7622
996.764, 1.75533
998.54, 1.70076
998.836, 1.68713
998.984, 1.67692
1000.32, 1.602
1001.35, 1.53731
1005.13, 1.37885