Folder: polymers/polypropylene/hiejima_2017/60C

Note: polypropylene/hiejima_2017/60C/summary.md
## Raman

#### Curve 1 (Disordered Peak)
**Type**: Skewed Gaussian\
**amplitude:** 0.7\
**center** 970.7\
**σ** 5.5
**σ2** 4.2


#### Curve 2 (Ordered Peak)
**Type**:Skewed Gaussian\
**amplitude** 0.4\
**center** 996.0\
**σ** 5.2\
**σ2** 4.4


## S<sup>2</sup>
**Disordered Curve Integrated Area:** 8.346625\
**Ordered Curve Integrated Area:** 5.181262\
**S<sup>2</sup>:** 0.3830






Data extracted from Figure 5a of [1]


[1]Y. Hiejima, K. Takeda, and K. Nitta, Macromolecules 50, 5867 (2017).



https://doi.org/10.1021/acs.macromol.7b00229

Note: README.md
Data Extraction Repository for
R.A Makin, K.R. York,  A.S. Messecar, and S.M. Durbin, “Quantitative Disorder Analysis and Particle Removal Efficiency of Polypropylene-Based Masks”


### References

## Polypropylene
[1]Y. Hiejima, K. Takeda, and K. Nitta, Macromolecules 50, 5867 (2017). 
https://doi.org/10.1021/acs.macromol.7b00229



[2] H. Li, W. Wu, M. M. Bubakir, H. Chen, X. Zhong, Z. Liu, Y. Ding, and W. Yang, J. Appl. Polym. Sci. 131, 40080 (2014).  
https://doi.org/10.1002/app.40080


[3] S. Lee, A. R. Cho, D. Park, J. K. Kim, K. S. Han, I.-J. Yoon, M. H. Lee, and J. Nah, ACS Applied Materials & Interfaces (2019).
https://doi.org/10.1021/acsami.8b19741


## PBI

[1] S. Lee, A. R. Cho, D. Park, J. K. Kim, K. S. Han, I.-J. Yoon, M. H. Lee, and J. Nah, ACS Applied Materials & Interfaces (2019).
https://doi.org/10.1021/acsami.8b19741


## Polyester


[1] I. E. Agranovski, R. Huang, O. V. Pyankov, I. S. Altman, and S. A. Grinshpun, Aerosol Science and Technology 40, 963 (2006).
https://doi.org/10.1080/02786820600833203


## PP/PB-BCS

[1] J. Liu, X. Zhang, H. Zhang, L. Zheng, C. Huang, H. Wu, R. Wang, and X. Jin, RSC Adv. 7, 43879 (2017).

https://doi.org/10.1039/C7RA07694K

File: raman_peaks.csv
960.208, 1.40612
961.096, 1.457
961.688, 1.48412
961.984, 1.50107
963.02, 1.56212
963.168, 1.54511
963.464, 1.58926
963.612, 1.59944
964.648, 1.64689
965.832, 1.7691
967.608, 1.90143
967.904, 1.91839
967.904, 1.898
968.644, 1.93189
969.68, 1.96916
970.42, 1.98606
970.642, 1.98604
971.53, 1.97064
973.38, 1.84979
973.528, 1.87016
974.12, 1.78853
974.268, 1.77492
974.416, 1.76131
974.564, 1.7477
975.008, 1.70007
975.156, 1.68306
977.672, 1.48907
977.968, 1.44486
978.264, 1.44822
979.3, 1.37334
979.448, 1.36652
985.664, 1.35901
987.736, 1.40974
988.328, 1.43686
988.476, 1.44364
989.068, 1.48775
989.364, 1.48432
989.956, 1.52843
990.4, 1.54877
990.548, 1.53856
990.844, 1.55212
991.584, 1.59621
994.988, 1.71816
997.948, 1.69403
998.392, 1.66339
998.54, 1.67357
998.54, 1.65658
998.688, 1.66675
999.428, 1.6089
1000.17, 1.58502
1000.76, 1.54757
1002.09, 1.46586
1002.24, 1.45905
1002.24, 1.43866
1002.83, 1.42839
1004.16, 1.38066
1005.64, 1.33971