Folder: polymers/polypropylene/hiejima_2017/65C

Note: polypropylene/hiejima_2017/65C/summary.md
## Raman

#### Curve 1 (Disordered Peak)
**Type**: Skewed Gaussian\
**amplitude:** 0.6\
**center** 970.8\
**σ** 5.4
**σ2** 4.3


#### Curve 2 (Ordered Peak)
**Type**:Skewed Gaussian\
**amplitude** 0.4\
**center** 995.9\
**σ** 5.0\
**σ2** 4.5


## S<sup>2</sup>
**Disordered Curve Integrated Area:** 7.865061\
**Ordered Curve Integrated Area:** 4.729168\
**S<sup>2</sup>:** 0.3755






Data extracted from Figure 5a of [1]


[1]Y. Hiejima, K. Takeda, and K. Nitta, Macromolecules 50, 5867 (2017).



https://doi.org/10.1021/acs.macromol.7b00229

Note: README.md
Data Extraction Repository for
R.A Makin, K.R. York,  A.S. Messecar, and S.M. Durbin, “Quantitative Disorder Analysis and Particle Removal Efficiency of Polypropylene-Based Masks”


### References

## Polypropylene
[1]Y. Hiejima, K. Takeda, and K. Nitta, Macromolecules 50, 5867 (2017). 
https://doi.org/10.1021/acs.macromol.7b00229



[2] H. Li, W. Wu, M. M. Bubakir, H. Chen, X. Zhong, Z. Liu, Y. Ding, and W. Yang, J. Appl. Polym. Sci. 131, 40080 (2014).  
https://doi.org/10.1002/app.40080


[3] S. Lee, A. R. Cho, D. Park, J. K. Kim, K. S. Han, I.-J. Yoon, M. H. Lee, and J. Nah, ACS Applied Materials & Interfaces (2019).
https://doi.org/10.1021/acsami.8b19741


## PBI

[1] S. Lee, A. R. Cho, D. Park, J. K. Kim, K. S. Han, I.-J. Yoon, M. H. Lee, and J. Nah, ACS Applied Materials & Interfaces (2019).
https://doi.org/10.1021/acsami.8b19741


## Polyester


[1] I. E. Agranovski, R. Huang, O. V. Pyankov, I. S. Altman, and S. A. Grinshpun, Aerosol Science and Technology 40, 963 (2006).
https://doi.org/10.1080/02786820600833203


## PP/PB-BCS

[1] J. Liu, X. Zhang, H. Zhang, L. Zheng, C. Huang, H. Wu, R. Wang, and X. Jin, RSC Adv. 7, 43879 (2017).

https://doi.org/10.1039/C7RA07694K

File: raman_peaks.csv
957.692, 1.29767
958.506, 1.31626
959.542, 1.33993
960.356, 1.36193
963.612, 1.53827
963.908, 1.55862
965.536, 1.65699
966.128, 1.7045
966.424, 1.75204
967.016, 1.79275
967.016, 1.76896
968.348, 1.86056
968.348, 1.84697
968.792, 1.8741
969.088, 1.88427
969.828, 1.89438
970.42, 1.9181
971.012, 1.92143
971.16, 1.90442
971.752, 1.89755
972.788, 1.82947
973.676, 1.79198
974.416, 1.73073
974.416, 1.70014
974.712, 1.7069
974.712, 1.67632
975.008, 1.67628
977.08, 1.45855
977.968, 1.41767
979.004, 1.37677
979.152, 1.36996
980.04, 1.32907
987.144, 1.35884
987.44, 1.369
987.884, 1.36895
988.328, 1.38589
988.476, 1.39267
990.104, 1.45025
990.696, 1.50456
991.288, 1.51808
991.436, 1.54865
993.656, 1.62656
994.988, 1.65699
997.8, 1.63627
998.244, 1.60903
998.836, 1.58178
1001.2, 1.46936
1001.8, 1.44211
1001.8, 1.42511
1002.09, 1.42848
1002.54, 1.40804
1002.54, 1.39105
1002.98, 1.3706
1003.28, 1.37397
1003.42, 1.36715
1003.87, 1.33652