Folder: polymers/polypropylene/hiejima_2017/70C

Note: polypropylene/hiejima_2017/70C/summary.md
## Raman

#### Curve 1 (Disordered Peak)
**Type**: Skewed Gaussian\
**amplitude:** 0.7\
**center** 970.7\
**σ** 5.7
**σ2** 4.5


#### Curve 2 (Ordered Peak)
**Type**:Skewed Gaussian\
**amplitude** 0.4\
**center** 996.0\
**σ** 5.3\
**σ2** 4.7


## S<sup>2</sup>
**Disordered Curve Integrated Area:** 8.422440\
**Ordered Curve Integrated Area:** 5.116419\
**S<sup>2</sup>:** 0.3779







Data extracted from Figure 5a of [1]


[1]Y. Hiejima, K. Takeda, and K. Nitta, Macromolecules 50, 5867 (2017).



https://doi.org/10.1021/acs.macromol.7b00229

Note: README.md
Data Extraction Repository for
R.A Makin, K.R. York,  A.S. Messecar, and S.M. Durbin, “Quantitative Disorder Analysis and Particle Removal Efficiency of Polypropylene-Based Masks”


### References

## Polypropylene
[1]Y. Hiejima, K. Takeda, and K. Nitta, Macromolecules 50, 5867 (2017). 
https://doi.org/10.1021/acs.macromol.7b00229



[2] H. Li, W. Wu, M. M. Bubakir, H. Chen, X. Zhong, Z. Liu, Y. Ding, and W. Yang, J. Appl. Polym. Sci. 131, 40080 (2014).  
https://doi.org/10.1002/app.40080


[3] S. Lee, A. R. Cho, D. Park, J. K. Kim, K. S. Han, I.-J. Yoon, M. H. Lee, and J. Nah, ACS Applied Materials & Interfaces (2019).
https://doi.org/10.1021/acsami.8b19741


## PBI

[1] S. Lee, A. R. Cho, D. Park, J. K. Kim, K. S. Han, I.-J. Yoon, M. H. Lee, and J. Nah, ACS Applied Materials & Interfaces (2019).
https://doi.org/10.1021/acsami.8b19741


## Polyester


[1] I. E. Agranovski, R. Huang, O. V. Pyankov, I. S. Altman, and S. A. Grinshpun, Aerosol Science and Technology 40, 963 (2006).
https://doi.org/10.1080/02786820600833203


## PP/PB-BCS

[1] J. Liu, X. Zhang, H. Zhang, L. Zheng, C. Huang, H. Wu, R. Wang, and X. Jin, RSC Adv. 7, 43879 (2017).

https://doi.org/10.1039/C7RA07694K

File: raman_peaks.csv
957.84, 1.26707
959.098, 1.28901
959.172, 1.30429
959.468, 1.31445
960.356, 1.33134
961.244, 1.36183
961.54, 1.38558
961.688, 1.39236
961.984, 1.38893
962.428, 1.41606
962.576, 1.44833
962.872, 1.4432
965.388, 1.63322
965.684, 1.65357
966.424, 1.70786
966.572, 1.71804
967.164, 1.75875
967.164, 1.73836
967.312, 1.76553
967.608, 1.7621
968.052, 1.80283
970.272, 1.85694
970.568, 1.86031
970.716, 1.87048
972.048, 1.84654
972.788, 1.78529
973.084, 1.78865
973.232, 1.75125
973.676, 1.74101
973.676, 1.71382
973.824, 1.73079
974.12, 1.70697
974.268, 1.69336
974.564, 1.67464
974.712, 1.66103
974.712, 1.62534
975.156, 1.62019
975.304, 1.60828
975.6, 1.57766
975.748, 1.56405
976.044, 1.53683
976.488, 1.496
978.412, 1.35985
979.004, 1.32579
979.152, 1.30539
979.448, 1.30875
979.448, 1.29516
981.964, 1.25069
983.592, 1.2471
985.072, 1.25373
985.812, 1.27743
986.034, 1.2825
986.774, 1.29941
988.328, 1.3587
988.328, 1.34511
989.068, 1.37221
989.364, 1.40276
991.436, 1.49767
991.732, 1.49424
992.472, 1.54173
992.768, 1.55189
993.36, 1.57222
993.36, 1.55862
996.172, 1.61607
996.912, 1.60579
996.986, 1.59389
997.8, 1.5751
1000.32, 1.48306
1000.32, 1.45927
1000.46, 1.47284
1000.61, 1.46263
1001.06, 1.4184
1002.98, 1.32982
1003.28, 1.3162