Folder: polymers/polypropylene/hiejima_2017/75C

Note: polypropylene/hiejima_2017/75C/summary.md
## Raman

#### Curve 1 (Disordered Peak)
**Type**: Skewed Gaussian\
**amplitude:** 0.6\
**center** 970.7\
**σ** 5.5
**σ2** 4.3


#### Curve 2 (Ordered Peak)
**Type**:Skewed Gaussian\
**amplitude** 0.4\
**center** 995.8\
**σ** 4.9\
**σ2** 4.6


## S<sup>2</sup>
**Disordered Curve Integrated Area:** 7.593699\
**Ordered Curve Integrated Area:** 4.582731\
**S<sup>2</sup>:** 0.3764






Data extracted from Figure 5a of [1]


[1]Y. Hiejima, K. Takeda, and K. Nitta, Macromolecules 50, 5867 (2017).



https://doi.org/10.1021/acs.macromol.7b00229

Note: README.md
Data Extraction Repository for
R.A Makin, K.R. York,  A.S. Messecar, and S.M. Durbin, “Quantitative Disorder Analysis and Particle Removal Efficiency of Polypropylene-Based Masks”


### References

## Polypropylene
[1]Y. Hiejima, K. Takeda, and K. Nitta, Macromolecules 50, 5867 (2017). 
https://doi.org/10.1021/acs.macromol.7b00229



[2] H. Li, W. Wu, M. M. Bubakir, H. Chen, X. Zhong, Z. Liu, Y. Ding, and W. Yang, J. Appl. Polym. Sci. 131, 40080 (2014).  
https://doi.org/10.1002/app.40080


[3] S. Lee, A. R. Cho, D. Park, J. K. Kim, K. S. Han, I.-J. Yoon, M. H. Lee, and J. Nah, ACS Applied Materials & Interfaces (2019).
https://doi.org/10.1021/acsami.8b19741


## PBI

[1] S. Lee, A. R. Cho, D. Park, J. K. Kim, K. S. Han, I.-J. Yoon, M. H. Lee, and J. Nah, ACS Applied Materials & Interfaces (2019).
https://doi.org/10.1021/acsami.8b19741


## Polyester


[1] I. E. Agranovski, R. Huang, O. V. Pyankov, I. S. Altman, and S. A. Grinshpun, Aerosol Science and Technology 40, 963 (2006).
https://doi.org/10.1080/02786820600833203


## PP/PB-BCS

[1] J. Liu, X. Zhang, H. Zhang, L. Zheng, C. Huang, H. Wu, R. Wang, and X. Jin, RSC Adv. 7, 43879 (2017).

https://doi.org/10.1039/C7RA07694K

File: raman_peaks.csv
956.878, 1.22045
957.322, 1.22465
957.618, 1.23141
957.914, 1.23817
958.21, 1.24493
958.506, 1.2517
958.802, 1.25846
959.098, 1.26522
959.394, 1.27198
959.69, 1.27875
959.986, 1.28551
960.282, 1.29567
960.504, 1.30244
960.652, 1.30752
960.948, 1.32108
961.096, 1.32616
961.244, 1.33124
961.392, 1.33802
961.688, 1.35498
961.836, 1.36006
961.984, 1.36514
962.502, 1.39057
962.65, 1.40075
963.242, 1.43126
963.316, 1.43805
963.464, 1.44313
963.612, 1.45331
964.056, 1.48554
964.056, 1.48044
964.796, 1.53473
965.536, 1.59072
965.536, 1.58562
965.98, 1.61955
966.128, 1.62973
966.276, 1.63821
966.868, 1.68232
967.016, 1.6874
967.164, 1.69758
967.312, 1.70436
967.46, 1.71454
967.608, 1.72302
967.756, 1.72979
967.904, 1.73827
968.2, 1.74843
968.422, 1.75436
968.94, 1.77214
969.162, 1.77721
969.384, 1.78568
969.68, 1.80264
969.828, 1.80772
970.198, 1.81617
970.568, 1.81273
971.234, 1.80161
971.752, 1.7888
971.9, 1.78369
972.048, 1.77688
972.196, 1.77176
972.492, 1.75474
972.64, 1.74792
972.788, 1.74281
972.936, 1.73429
973.38, 1.70026
973.528, 1.69175
973.972, 1.65601
974.12, 1.6441
974.12, 1.639
974.86, 1.57605
974.86, 1.56925
975.008, 1.56414
975.156, 1.55053
975.6, 1.5097
976.34, 1.45694
976.34, 1.44844
977.08, 1.39568
977.154, 1.38888
977.524, 1.37014
977.672, 1.35993
977.82, 1.35142
978.412, 1.31907
978.56, 1.31055
978.708, 1.30374
979.004, 1.28501
979.152, 1.2748
979.3, 1.26969
979.596, 1.25436
979.818, 1.24924
980.114, 1.24241
980.41, 1.23558
980.78, 1.23044
981.446, 1.22271
982.038, 1.21755
984.776, 1.21978
984.998, 1.2223
985.59, 1.23498
985.886, 1.23664
986.478, 1.24847
986.996, 1.2671
987.218, 1.27302
987.44, 1.28064
987.662, 1.28911
987.884, 1.29588
988.032, 1.30096
988.476, 1.3179
988.624, 1.32298
988.846, 1.32976
989.068, 1.33823
989.216, 1.3484
989.364, 1.35348
989.512, 1.35856
989.66, 1.36534
990.03, 1.38144
990.104, 1.38738
990.252, 1.39246
990.77, 1.41534
990.844, 1.42128
990.992, 1.42636
991.14, 1.43314
991.436, 1.4501
991.584, 1.45518
991.88, 1.47044
992.176, 1.4823
992.324, 1.48738
992.472, 1.49416
992.62, 1.50094
992.916, 1.51619
993.064, 1.52128
993.212, 1.52805
993.36, 1.53483
993.582, 1.53991
993.878, 1.54667
994.174, 1.55343
995.062, 1.56352
995.358, 1.56689
995.728, 1.57194
996.172, 1.56849
996.394, 1.56337
996.69, 1.55654
996.986, 1.54971
997.356, 1.54457
997.8, 1.53772
998.022, 1.53345
998.614, 1.51554
998.91, 1.50531
999.132, 1.49679
999.28, 1.48657
999.428, 1.47806
999.576, 1.47125
999.872, 1.45252
1000.09, 1.444
1000.24, 1.43379
1000.83, 1.40653
1000.98, 1.39632
1001.2, 1.3844
1001.35, 1.37759
1001.57, 1.36652
1001.72, 1.35886
1002.31, 1.33075
1002.61, 1.31797
1003.05, 1.29923
1003.28, 1.29241
1003.5, 1.28389
1003.79, 1.27366
1004.09, 1.26683
1004.46, 1.25489
1004.68, 1.24977
1005.42, 1.23439
1005.79, 1.22415