Folder: polymers/polypropylene/hiejima_2017/80C

Note: polypropylene/hiejima_2017/80C/summary.md
## Raman

#### Curve 1 (Disordered Peak)
**Type**: Skewed Gaussian\
**amplitude:** 0.6\
**center** 970.6\
**σ** 5.4
**σ2** 4.3


#### Curve 2 (Ordered Peak)
**Type**:Skewed Gaussian\
**amplitude** 0.4\
**center** 995.9\
**σ** 4.9\
**σ2** 4.6


## S<sup>2</sup>
**Disordered Curve Integrated Area:** 7.248728\
**Ordered Curve Integrated Area:** 4.271886\
**S<sup>2</sup>:** 0.3708





Data extracted from Figure 5a of [1]


[1]Y. Hiejima, K. Takeda, and K. Nitta, Macromolecules 50, 5867 (2017).



https://doi.org/10.1021/acs.macromol.7b00229

Note: README.md
Data Extraction Repository for
R.A Makin, K.R. York,  A.S. Messecar, and S.M. Durbin, “Quantitative Disorder Analysis and Particle Removal Efficiency of Polypropylene-Based Masks”


### References

## Polypropylene
[1]Y. Hiejima, K. Takeda, and K. Nitta, Macromolecules 50, 5867 (2017). 
https://doi.org/10.1021/acs.macromol.7b00229



[2] H. Li, W. Wu, M. M. Bubakir, H. Chen, X. Zhong, Z. Liu, Y. Ding, and W. Yang, J. Appl. Polym. Sci. 131, 40080 (2014).  
https://doi.org/10.1002/app.40080


[3] S. Lee, A. R. Cho, D. Park, J. K. Kim, K. S. Han, I.-J. Yoon, M. H. Lee, and J. Nah, ACS Applied Materials & Interfaces (2019).
https://doi.org/10.1021/acsami.8b19741


## PBI

[1] S. Lee, A. R. Cho, D. Park, J. K. Kim, K. S. Han, I.-J. Yoon, M. H. Lee, and J. Nah, ACS Applied Materials & Interfaces (2019).
https://doi.org/10.1021/acsami.8b19741


## Polyester


[1] I. E. Agranovski, R. Huang, O. V. Pyankov, I. S. Altman, and S. A. Grinshpun, Aerosol Science and Technology 40, 963 (2006).
https://doi.org/10.1080/02786820600833203


## PP/PB-BCS

[1] J. Liu, X. Zhang, H. Zhang, L. Zheng, C. Huang, H. Wu, R. Wang, and X. Jin, RSC Adv. 7, 43879 (2017).

https://doi.org/10.1039/C7RA07694K

File: raman_peaks.csv
956.655, 1.18734
956.952, 1.1924
960.8, 1.28372
961.688, 1.3142
961.836, 1.32438
962.132, 1.33114
962.724, 1.35826
962.872, 1.37013
963.02, 1.38031
963.242, 1.39218
963.316, 1.40237
963.982, 1.43288
964.204, 1.44474
964.352, 1.45492
964.5, 1.4668
964.796, 1.48376
965.092, 1.51431
965.388, 1.53976
965.61, 1.55503
966.276, 1.59233
966.424, 1.60251
966.572, 1.61269
966.72, 1.62287
966.868, 1.63644
967.312, 1.66018
967.46, 1.67376
967.756, 1.68392
967.904, 1.69749
968.2, 1.70765
968.496, 1.71102
968.94, 1.72456
969.532, 1.74148
969.976, 1.75163
970.198, 1.7584
970.494, 1.75836
970.79, 1.75833
972.344, 1.70378
973.232, 1.6544
973.676, 1.62886
974.194, 1.57783
974.416, 1.55741
974.564, 1.5421
974.786, 1.52848
974.86, 1.51318
975.526, 1.46978
975.6, 1.45532
976.34, 1.41106
976.488, 1.39575
976.636, 1.38044
976.784, 1.36683
976.932, 1.34982
977.228, 1.33959
977.672, 1.30556
977.968, 1.29533
978.116, 1.28512
978.856, 1.25275
979.004, 1.24423
979.3, 1.2374
979.892, 1.21015
984.924, 1.17898
985.664, 1.19589
986.404, 1.21279
987.736, 1.25342
990.4, 1.34997
990.548, 1.35675
992.472, 1.44318
992.768, 1.45674
993.804, 1.48721
993.952, 1.49399
994.84, 1.51088
996.098, 1.51073
997.06, 1.49703
998.392, 1.47308
999.428, 1.42879
999.724, 1.42195
1000.46, 1.37939
1000.61, 1.36918
1001.06, 1.35044
1001.35, 1.33001
1001.65, 1.32318
1001.8, 1.31637
1001.94, 1.30616
1002.39, 1.28232
1002.68, 1.27548
1005.2, 1.20043