Folder: polymers/polypropylene/hiejima_2017/85C

Note: polypropylene/hiejima_2017/85C/summary.md
## Raman

#### Curve 1 (Disordered Peak)
**Type**: Skewed Gaussian\
**amplitude:** 0.6\
**center** 970.6\
**σ** 5.5
**σ2** 4.3


#### Curve 2 (Ordered Peak)
**Type**:Skewed Gaussian\
**amplitude** 0.3\
**center** 995.9\
**σ** 4.9\
**σ2** 4.5


## S<sup>2</sup>
**Disordered Curve Integrated Area:** 6.946030\
**Ordered Curve Integrated Area:** 4.008047\
**S<sup>2</sup>:** 0.3659






Data extracted from Figure 5a of [1]


[1]Y. Hiejima, K. Takeda, and K. Nitta, Macromolecules 50, 5867 (2017).



https://doi.org/10.1021/acs.macromol.7b00229

Note: README.md
Data Extraction Repository for
R.A Makin, K.R. York,  A.S. Messecar, and S.M. Durbin, “Quantitative Disorder Analysis and Particle Removal Efficiency of Polypropylene-Based Masks”


### References

## Polypropylene
[1]Y. Hiejima, K. Takeda, and K. Nitta, Macromolecules 50, 5867 (2017). 
https://doi.org/10.1021/acs.macromol.7b00229



[2] H. Li, W. Wu, M. M. Bubakir, H. Chen, X. Zhong, Z. Liu, Y. Ding, and W. Yang, J. Appl. Polym. Sci. 131, 40080 (2014).  
https://doi.org/10.1002/app.40080


[3] S. Lee, A. R. Cho, D. Park, J. K. Kim, K. S. Han, I.-J. Yoon, M. H. Lee, and J. Nah, ACS Applied Materials & Interfaces (2019).
https://doi.org/10.1021/acsami.8b19741


## PBI

[1] S. Lee, A. R. Cho, D. Park, J. K. Kim, K. S. Han, I.-J. Yoon, M. H. Lee, and J. Nah, ACS Applied Materials & Interfaces (2019).
https://doi.org/10.1021/acsami.8b19741


## Polyester


[1] I. E. Agranovski, R. Huang, O. V. Pyankov, I. S. Altman, and S. A. Grinshpun, Aerosol Science and Technology 40, 963 (2006).
https://doi.org/10.1080/02786820600833203


## PP/PB-BCS

[1] J. Liu, X. Zhang, H. Zhang, L. Zheng, C. Huang, H. Wu, R. Wang, and X. Jin, RSC Adv. 7, 43879 (2017).

https://doi.org/10.1039/C7RA07694K

File: raman_peaks.csv
956.507, 1.14488
956.804, 1.14824
957.1, 1.15161
957.322, 1.15498
957.618, 1.15834
957.988, 1.1617
958.506, 1.17014
958.802, 1.1769
959.098, 1.18366
959.542, 1.19381
959.838, 1.20057
960.06, 1.20734
960.208, 1.21242
960.43, 1.22004
960.652, 1.22596
960.8, 1.23274
961.096, 1.2429
961.244, 1.24798
961.466, 1.25475
961.688, 1.26322
961.836, 1.2683
961.984, 1.27678
962.28, 1.29034
962.428, 1.30052
962.576, 1.3056
962.724, 1.31068
962.872, 1.31746
963.02, 1.32424
963.168, 1.32932
963.316, 1.3344
963.464, 1.34288
963.612, 1.35306
963.76, 1.36154
964.13, 1.38358
964.352, 1.39545
964.648, 1.41751
964.648, 1.41241
964.722, 1.42514
964.796, 1.43108
964.87, 1.43957
965.092, 1.45484
965.24, 1.47011
965.388, 1.47519
965.536, 1.48197
965.684, 1.48705
965.98, 1.50401
966.128, 1.50909
966.276, 1.51927
966.276, 1.51417
966.424, 1.52775
966.72, 1.5515
966.868, 1.55998
967.016, 1.56676
967.164, 1.57524
967.312, 1.58542
967.46, 1.5939
967.608, 1.60068
967.756, 1.61085
967.756, 1.60576
967.904, 1.61763
968.052, 1.62271
968.348, 1.63457
968.348, 1.62948
968.57, 1.63795
968.792, 1.64642
969.014, 1.65234
969.384, 1.65994
969.68, 1.66331
970.05, 1.66666
970.346, 1.66663
970.642, 1.66659
970.938, 1.66656
971.308, 1.66312
971.752, 1.65627
971.974, 1.64945
972.122, 1.64093
972.344, 1.63241
972.492, 1.6256
972.64, 1.61879
972.788, 1.61367
972.788, 1.60857
973.38, 1.56942
973.38, 1.56433
973.528, 1.55921
973.528, 1.55411
973.676, 1.549
973.824, 1.53709
974.12, 1.51836
974.12, 1.51327
974.268, 1.50305
974.416, 1.48944
974.564, 1.48093
974.712, 1.47072
974.786, 1.46476
974.86, 1.45711
974.934, 1.45115
975.008, 1.4418
975.156, 1.43668
975.304, 1.42477
975.452, 1.41286
975.6, 1.40775
975.748, 1.39584
975.748, 1.39074
975.896, 1.38392
976.044, 1.37371
976.192, 1.3635
976.34, 1.35499
976.932, 1.31244
977.08, 1.30733
977.154, 1.29882
977.376, 1.2886
977.82, 1.26306
977.968, 1.25455
978.264, 1.23582
978.412, 1.22561
978.56, 1.2188
978.708, 1.21368
979.004, 1.19666
979.152, 1.19154
979.374, 1.18472
979.596, 1.1762
979.818, 1.16768
980.04, 1.16085
980.188, 1.15574
980.484, 1.14551
980.706, 1.14039
981.002, 1.13696
981.298, 1.13352
981.594, 1.13179
984.48, 1.13146
984.776, 1.13482
984.998, 1.13564
985.294, 1.13986
985.664, 1.14491
985.96, 1.14828
986.256, 1.15164
986.478, 1.15841
986.7, 1.16518
986.848, 1.17026
986.996, 1.17534
987.144, 1.18043
987.366, 1.18465
987.958, 1.19902
988.18, 1.20579
988.476, 1.21765
988.772, 1.22612
988.92, 1.23289
989.068, 1.23967
989.216, 1.24645
989.438, 1.25662
989.66, 1.26679
989.882, 1.27526
990.178, 1.28542
990.548, 1.29728
990.696, 1.30405
990.844, 1.30914
990.992, 1.31591
991.14, 1.32439
991.288, 1.33117
991.51, 1.34134
991.732, 1.34811
991.88, 1.35319
992.176, 1.36166
992.25, 1.36759
992.546, 1.37691
992.99, 1.39215
993.286, 1.40061
993.508, 1.40908
993.656, 1.41416
993.804, 1.41924
994.026, 1.42771
994.322, 1.43447
994.692, 1.43953
995.136, 1.44287
995.506, 1.44793
995.802, 1.45129
996.098, 1.45126
996.32, 1.44274
996.542, 1.43761
996.838, 1.43248
997.208, 1.42904
997.652, 1.42559
998.17, 1.42044
998.466, 1.41021
998.762, 1.40168
998.984, 1.39485
999.132, 1.38464
999.28, 1.37443
999.428, 1.36931
999.576, 1.3625
999.724, 1.35059
999.872, 1.34378
1000.09, 1.33271
1000.17, 1.32675
1000.32, 1.32164
1000.46, 1.31482
1000.61, 1.30461
1000.83, 1.29949
1000.98, 1.29182
1001.2, 1.28585
1001.5, 1.27562
1001.72, 1.2671
1002.09, 1.24837
1002.24, 1.24155
1002.39, 1.23644
1002.46, 1.23133
1002.68, 1.22451
1002.98, 1.21428
1003.13, 1.20917
1003.28, 1.20405
1003.42, 1.19724
1003.72, 1.18701
1003.87, 1.18189
1004.09, 1.17507
1004.39, 1.16739
1004.68, 1.16396
1005.05, 1.15967
1005.27, 1.15454
1005.5, 1.14602
1005.79, 1.13579