Folder: polymers/polypropylene/hiejima_2017/90C

Note: polypropylene/hiejima_2017/90C/summary.md
## Raman

#### Curve 1 (Disordered Peak)
**Type**: Skewed Gaussian\
**amplitude:** 0.6\
**center** 970.7\
**σ** 5.7
**σ2** 4.3


#### Curve 2 (Ordered Peak)
**Type**:Skewed Gaussian\
**amplitude** 0.3\
**center** 996.0\
**σ** 4.9\
**σ2** 4.6


## S<sup>2</sup>
**Disordered Curve Integrated Area:** 7.014033\
**Ordered Curve Integrated Area:** 4.025726\
**S<sup>2</sup>:** 0.3647









Data extracted from Figure 5a of [1]


[1]Y. Hiejima, K. Takeda, and K. Nitta, Macromolecules 50, 5867 (2017).



https://doi.org/10.1021/acs.macromol.7b00229

Note: README.md
Data Extraction Repository for
R.A Makin, K.R. York,  A.S. Messecar, and S.M. Durbin, “Quantitative Disorder Analysis and Particle Removal Efficiency of Polypropylene-Based Masks”


### References

## Polypropylene
[1]Y. Hiejima, K. Takeda, and K. Nitta, Macromolecules 50, 5867 (2017). 
https://doi.org/10.1021/acs.macromol.7b00229



[2] H. Li, W. Wu, M. M. Bubakir, H. Chen, X. Zhong, Z. Liu, Y. Ding, and W. Yang, J. Appl. Polym. Sci. 131, 40080 (2014).  
https://doi.org/10.1002/app.40080


[3] S. Lee, A. R. Cho, D. Park, J. K. Kim, K. S. Han, I.-J. Yoon, M. H. Lee, and J. Nah, ACS Applied Materials & Interfaces (2019).
https://doi.org/10.1021/acsami.8b19741


## PBI

[1] S. Lee, A. R. Cho, D. Park, J. K. Kim, K. S. Han, I.-J. Yoon, M. H. Lee, and J. Nah, ACS Applied Materials & Interfaces (2019).
https://doi.org/10.1021/acsami.8b19741


## Polyester


[1] I. E. Agranovski, R. Huang, O. V. Pyankov, I. S. Altman, and S. A. Grinshpun, Aerosol Science and Technology 40, 963 (2006).
https://doi.org/10.1080/02786820600833203


## PP/PB-BCS

[1] J. Liu, X. Zhang, H. Zhang, L. Zheng, C. Huang, H. Wu, R. Wang, and X. Jin, RSC Adv. 7, 43879 (2017).

https://doi.org/10.1039/C7RA07694K

File: raman_peaks.csv
956.804, 1.11766
957.174, 1.12271
957.544, 1.12777
958.358, 1.13617
959.098, 1.15308
959.764, 1.16999
960.06, 1.17845
960.43, 1.18945
960.948, 1.20554
961.17, 1.21401
961.392, 1.22248
961.836, 1.24282
962.576, 1.27502
963.316, 1.31571
963.464, 1.32079
963.76, 1.34115
963.982, 1.35301
964.056, 1.3598
964.796, 1.4039
964.796, 1.3988
964.944, 1.41237
965.092, 1.42255
965.536, 1.44629
965.98, 1.47003
966.128, 1.47681
966.276, 1.48359
967.46, 1.55481
967.682, 1.56498
968.2, 1.58871
968.422, 1.59378
968.792, 1.60564
969.162, 1.61749
969.458, 1.62425
969.902, 1.63524
970.198, 1.63606
970.494, 1.63602
970.79, 1.63599
971.086, 1.63426
971.382, 1.62743
971.678, 1.6206
971.9, 1.61207
972.048, 1.60696
972.196, 1.60184
972.492, 1.58482
972.788, 1.57119
973.38, 1.53884
973.972, 1.50309
974.12, 1.49118
974.12, 1.48608
974.712, 1.44353
974.712, 1.43843
974.86, 1.43332
974.86, 1.42822
975.6, 1.37037
976.34, 1.31761
977.08, 1.27334
977.08, 1.26824
977.376, 1.25462
977.82, 1.22568
977.82, 1.22058
978.56, 1.18821
978.856, 1.17289
979.3, 1.15754
979.448, 1.15243
979.744, 1.1388
979.966, 1.13368
980.558, 1.11322
981.076, 1.10466
981.298, 1.10379
982.408, 1.09431
984.998, 1.10251
985.664, 1.11433
986.33, 1.12275
987.07, 1.13965
987.81, 1.15656
988.18, 1.16501
988.55, 1.18366
988.624, 1.19045
988.994, 1.204
989.364, 1.21245
989.66, 1.21922
990.104, 1.23446
990.844, 1.26836
991.14, 1.28361
991.51, 1.30056
992.028, 1.32089
992.25, 1.32596
992.472, 1.33443
992.916, 1.35477
993.212, 1.36833
993.73, 1.38272
994.47, 1.39962
995.358, 1.41226
995.654, 1.41223
995.95, 1.4122
996.246, 1.41216
996.542, 1.41213
997.282, 1.401
998.022, 1.38392
998.614, 1.36601
998.984, 1.35407
999.428, 1.33873
999.576, 1.33362
1000.02, 1.31317
1000.17, 1.30806
1000.32, 1.30294
1000.46, 1.29613
1000.76, 1.27911
1000.91, 1.27059
1001.35, 1.25185
1001.5, 1.24504
1001.65, 1.23992
1001.8, 1.23481
1002.09, 1.21778
1002.39, 1.20755
1002.98, 1.1837
1003.2, 1.17517
1003.87, 1.15301
1004.68, 1.13422
1005.05, 1.12908