Folder: polymers/polypropylene/hiejima_2017/95C

Note: README.md
Data Extraction Repository for
R.A Makin, K.R. York,  A.S. Messecar, and S.M. Durbin, “Quantitative Disorder Analysis and Particle Removal Efficiency of Polypropylene-Based Masks”


### References

## Polypropylene
[1]Y. Hiejima, K. Takeda, and K. Nitta, Macromolecules 50, 5867 (2017). 
https://doi.org/10.1021/acs.macromol.7b00229



[2] H. Li, W. Wu, M. M. Bubakir, H. Chen, X. Zhong, Z. Liu, Y. Ding, and W. Yang, J. Appl. Polym. Sci. 131, 40080 (2014).  
https://doi.org/10.1002/app.40080


[3] S. Lee, A. R. Cho, D. Park, J. K. Kim, K. S. Han, I.-J. Yoon, M. H. Lee, and J. Nah, ACS Applied Materials & Interfaces (2019).
https://doi.org/10.1021/acsami.8b19741


## PBI

[1] S. Lee, A. R. Cho, D. Park, J. K. Kim, K. S. Han, I.-J. Yoon, M. H. Lee, and J. Nah, ACS Applied Materials & Interfaces (2019).
https://doi.org/10.1021/acsami.8b19741


## Polyester


[1] I. E. Agranovski, R. Huang, O. V. Pyankov, I. S. Altman, and S. A. Grinshpun, Aerosol Science and Technology 40, 963 (2006).
https://doi.org/10.1080/02786820600833203


## PP/PB-BCS

[1] J. Liu, X. Zhang, H. Zhang, L. Zheng, C. Huang, H. Wu, R. Wang, and X. Jin, RSC Adv. 7, 43879 (2017).

https://doi.org/10.1039/C7RA07694K

File: raman_peaks.csv
957.1, 1.09384
957.544, 1.09378
957.988, 1.10393
959.32, 1.12756
960.8, 1.16817
961.836, 1.21563
961.984, 1.22241
962.872, 1.26649
963.168, 1.26985
963.538, 1.29869
963.76, 1.31056
964.5, 1.35126
964.944, 1.38519
965.092, 1.39537
965.388, 1.41232
965.536, 1.4225
965.684, 1.42928
965.98, 1.44284
966.276, 1.4632
966.424, 1.47167
966.572, 1.48015
966.72, 1.48693
967.164, 1.51407
967.312, 1.52085
967.46, 1.53103
967.608, 1.52421
967.756, 1.54798
968.052, 1.54795
968.422, 1.5598
968.718, 1.56317
969.236, 1.575
969.458, 1.58347
969.976, 1.59191
970.198, 1.59783
970.494, 1.59694
970.79, 1.59776
971.012, 1.59179
971.53, 1.58663
971.604, 1.57812
972.344, 1.56105
972.344, 1.55425
972.64, 1.54062
972.788, 1.53041
972.936, 1.5236
973.158, 1.51508
973.824, 1.47252
973.972, 1.46741
974.12, 1.4419
974.416, 1.43507
974.416, 1.41808
974.564, 1.42486
974.712, 1.41125
974.712, 1.39426
975.156, 1.37381
976.044, 1.31254
976.044, 1.30575
976.192, 1.29893
976.784, 1.25468
976.932, 1.24787
977.228, 1.21385
977.524, 1.21042
977.524, 1.20023
977.82, 1.19679
977.968, 1.17639
978.412, 1.16614
978.708, 1.14572
979.818, 1.10991
981.076, 1.07748
981.52, 1.07403
981.668, 1.06721
982.26, 1.06714
982.704, 1.062
983, 1.06026
983.222, 1.06024
984.184, 1.07032
985.886, 1.08202
986.552, 1.10063
987.292, 1.11754
987.958, 1.13275
988.032, 1.12765
988.476, 1.14119
989.216, 1.16829
989.364, 1.18866
989.66, 1.19883
990.178, 1.21406
990.548, 1.22931
990.548, 1.22251
990.992, 1.24965
991.88, 1.28693
991.88, 1.28013
992.324, 1.30387
992.916, 1.31739
993.212, 1.34115
994.396, 1.3682
994.988, 1.36813
995.432, 1.37827
996.024, 1.3782
997.578, 1.36273
998.984, 1.32689
999.28, 1.32006
999.28, 1.30986
999.65, 1.29453
999.724, 1.28602
1000.17, 1.27578
1000.17, 1.26558
1000.46, 1.25535
1000.76, 1.25192
1000.91, 1.23491
1001.8, 1.21102
1002.83, 1.17352
1002.83, 1.16332
1003.28, 1.15647
1003.57, 1.14625
1003.87, 1.13602
1004.76, 1.09853
1005.13, 1.09339
1005.79, 1.07802